subject,age,stimulus,trial,target,object,rt,response
2,35,b07,19,black,gun,573,correct
2,35,b11,20,black,gun,674,correct
2,35,b97,21,black,nogun,765,correct
2,35,w94,22,white,gun,533,correct
2,35,b04,23,black,nogun,626,correct
2,35,w07,24,white,gun,530,correct
2,35,w92,25,white,nogun,609,correct
2,35,b07,26,black,nogun,742,correct
2,35,w06,27,white,nogun,621,correct
2,35,b12,28,black,nogun,596,correct
2,35,w96,29,white,nogun,713,correct
2,35,w93,30,white,nogun,680,correct
2,35,b10,31,black,nogun,737,correct
2,35,b13,32,black,gun,529,correct
2,35,w15,33,white,gun,542,correct
2,35,w16,34,white,gun,481,correct
2,35,b02,35,black,gun,595,correct
2,35,b99,36,black,nogun,611,correct
2,35,w01,37,white,nogun,613,correct
2,35,w97,38,white,nogun,538,correct
2,35,w91,39,white,gun,771,correct
2,35,w04,40,white,nogun,616,correct
2,35,w14,41,white,gun,572,correct
2,35,b03,42,black,nogun,623,correct
2,35,b98,43,black,nogun,644,correct
2,35,w90,44,white,nogun,539,correct
2,35,w90,45,white,gun,588,correct
2,35,b91,46,black,nogun,619,correct
2,35,b10,47,black,gun,822,correct
2,35,b08,48,black,nogun,751,correct
2,35,w06,49,white,gun,654,correct
2,35,b94,50,black,nogun,575,correct
2,35,b97,51,black,gun,687,correct
2,35,b92,52,black,nogun,586,correct
2,35,b01,53,black,gun,495,correct
2,35,b95,54,black,nogun,746,correct
2,35,w03,55,white,gun,548,correct
2,35,b90,56,black,nogun,0,incorrect
2,35,b96,57,black,nogun,672,correct
2,35,b98,58,black,gun,691,correct
2,35,w19,59,white,gun,593,correct
2,35,b01,60,black,nogun,721,correct
2,35,b05,61,black,gun,591,correct
2,35,b09,62,black,nogun,647,correct
2,35,b02,63,black,nogun,586,correct
2,35,w98,64,white,nogun,585,correct
2,35,b93,65,black,gun,774,correct
2,35,w97,66,white,gun,564,correct
2,35,b04,67,black,gun,673,correct
2,35,b95,68,black,gun,490,correct
2,35,b17,69,black,nogun,682,correct
2,35,w94,70,white,nogun,671,correct
2,35,b08,71,black,gun,499,correct
2,35,b14,72,black,gun,593,correct
2,35,b90,73,black,gun,517,correct
2,35,b09,74,black,gun,579,correct
2,35,w92,75,white,gun,0,incorrect
2,35,w95,76,white,nogun,602,correct
2,35,b91,77,black,gun,520,correct
2,35,b11,78,black,nogun,662,correct
2,35,w16,79,white,nogun,633,correct
2,35,w13,80,white,gun,613,correct
2,35,w08,81,white,nogun,687,correct
2,35,w96,82,white,gun,579,correct
2,35,w13,83,white,nogun,674,correct
2,35,b96,84,black,gun,554,correct
2,35,b16,85,black,gun,532,correct
2,35,b13,86,black,nogun,709,correct
2,35,b12,87,black,gun,563,correct
2,35,w11,88,white,nogun,591,correct
2,35,b92,89,black,gun,551,correct
2,35,w91,90,white,nogun,593,correct
2,35,b03,91,black,gun,530,correct
2,35,w08,92,white,gun,607,correct
2,35,w14,93,white,nogun,634,correct
2,35,b94,94,black,gun,832,correct
2,35,b93,95,black,nogun,541,correct
2,35,w05,96,white,nogun,775,correct
2,35,w02,97,white,nogun,558,correct
2,35,b17,98,black,gun,687,correct
2,35,w17,99,white,nogun,568,correct
2,35,w05,100,white,gun,480,correct
2,35,b99,101,black,gun,550,correct
2,35,b16,102,black,nogun,658,correct
2,35,b14,103,black,nogun,760,correct
2,35,b05,104,black,nogun,650,correct
2,35,w93,105,white,gun,523,correct
2,35,w99,106,white,gun,570,correct
2,35,w15,107,white,nogun,580,correct
2,35,w11,108,white,gun,609,incorrect
2,35,w98,109,white,gun,552,correct
2,35,w95,110,white,gun,724,correct
2,35,w99,111,white,nogun,616,correct
2,35,w01,112,white,gun,546,correct
2,35,w02,113,white,gun,543,correct
2,35,w07,114,white,nogun,543,correct
2,35,w19,115,white,nogun,814,correct
2,35,w03,116,white,nogun,752,correct
2,35,w17,117,white,gun,725,correct
2,35,w04,118,white,gun,672,correct
