subject,age,stimulus,trial,target,object,rt,response
1,35,w05,19,white,nogun,658,correct
1,35,w15,20,white,nogun,622,correct
1,35,b92,21,black,nogun,639,correct
1,35,w11,22,white,nogun,494,correct
1,35,b93,23,black,nogun,562,correct
1,35,w15,24,white,gun,552,correct
1,35,w03,25,white,gun,533,correct
1,35,w11,26,white,gun,506,correct
1,35,b91,27,black,gun,408,correct
1,35,b03,28,black,nogun,580,correct
1,35,b93,29,black,gun,502,correct
1,35,w14,30,white,nogun,602,correct
1,35,b95,31,black,gun,493,correct
1,35,b90,32,black,gun,607,correct
1,35,w17,33,white,gun,750,correct
1,35,w96,34,white,nogun,627,correct
1,35,w02,35,white,nogun,625,correct
1,35,b12,36,black,nogun,721,correct
1,35,b99,37,black,gun,474,correct
1,35,w04,38,white,gun,536,correct
1,35,b92,39,black,gun,545,correct
1,35,w90,40,white,gun,467,correct
1,35,w97,41,white,nogun,681,correct
1,35,b04,42,black,nogun,619,correct
1,35,b97,43,black,nogun,690,correct
1,35,w91,44,white,gun,731,correct
1,35,b98,45,black,nogun,690,correct
1,35,b17,46,black,gun,772,correct
1,35,w02,47,white,gun,745,correct
1,35,w07,48,white,nogun,698,correct
1,35,w90,49,white,nogun,731,correct
1,35,w07,50,white,gun,589,correct
1,35,w06,51,white,nogun,734,correct
1,35,w16,52,white,gun,642,correct
1,35,w93,53,white,nogun,813,correct
1,35,b09,54,black,nogun,693,correct
1,35,b09,55,black,gun,751,correct
1,35,w01,56,white,nogun,761,correct
1,35,b08,57,black,gun,603,correct
1,35,w03,58,white,nogun,751,correct
1,35,w01,59,white,gun,555,correct
1,35,b10,60,black,gun,0,incorrect
1,35,b95,61,black,nogun,661,correct
1,35,b02,62,black,nogun,699,correct
1,35,w19,63,white,gun,475,correct
1,35,b96,64,black,gun,478,correct
1,35,b01,65,black,nogun,817,correct
1,35,b98,66,black,gun,507,correct
1,35,w13,67,white,gun,599,correct
1,35,b12,68,black,gun,458,correct
1,35,b01,69,black,gun,508,correct
1,35,w94,70,white,nogun,620,correct
1,35,w99,71,white,gun,468,correct
1,35,w93,72,white,gun,438,correct
1,35,b90,73,black,nogun,849,correct
1,35,w98,74,white,gun,459,correct
1,35,b14,75,black,nogun,613,correct
1,35,w95,76,white,gun,695,correct
1,35,b08,77,black,nogun,667,correct
1,35,b17,78,black,nogun,619,correct
1,35,w16,79,white,nogun,631,correct
1,35,b91,80,black,nogun,620,correct
1,35,b99,81,black,nogun,653,correct
1,35,b13,82,black,nogun,819,correct
1,35,b02,83,black,gun,590,correct
1,35,w19,84,white,nogun,648,correct
1,35,w04,85,white,nogun,564,correct
1,35,b96,86,black,nogun,448,correct
1,35,b03,87,black,gun,510,correct
1,35,w92,88,white,gun,0,incorrect
1,35,b05,89,black,nogun,663,correct
1,35,b16,90,black,gun,442,correct
1,35,w17,91,white,nogun,640,correct
1,35,b16,92,black,nogun,540,correct
1,35,b14,93,black,gun,679,correct
1,35,w99,94,white,nogun,621,correct
1,35,b13,95,black,gun,489,correct
1,35,w06,96,white,gun,570,correct
1,35,w91,97,white,nogun,566,correct
1,35,b07,98,black,nogun,714,correct
1,35,b11,99,black,nogun,578,correct
1,35,w08,100,white,gun,494,correct
1,35,b94,101,black,gun,442,correct
1,35,w05,102,white,gun,423,correct
1,35,w94,103,white,gun,444,correct
1,35,b94,104,black,nogun,808,correct
1,35,w95,105,white,nogun,606,correct
1,35,w14,106,white,gun,505,correct
1,35,b10,107,black,nogun,843,correct
1,35,w97,108,white,gun,525,correct
1,35,b97,109,black,gun,739,correct
1,35,b11,110,black,gun,516,correct
1,35,w13,111,white,nogun,755,correct
1,35,w98,112,white,nogun,646,correct
1,35,b04,113,black,gun,513,correct
1,35,b05,114,black,gun,551,correct
1,35,b07,115,black,gun,445,correct
1,35,w92,116,white,nogun,0,incorrect
1,35,w96,117,white,gun,534,correct
1,35,w08,118,white,nogun,714,correct
