subject,age,stimulus,trial,target,object,rt,response
4,34,w07,19,white,gun,495,correct
4,34,w11,20,white,nogun,516,correct
4,34,w99,21,white,nogun,539,correct
4,34,b02,22,black,nogun,466,correct
4,34,w94,23,white,gun,504,correct
4,34,b92,24,black,nogun,475,correct
4,34,b11,25,black,gun,546,correct
4,34,w14,26,white,gun,572,correct
4,34,b95,27,black,gun,494,correct
4,34,b01,28,black,gun,478,correct
4,34,b96,29,black,gun,515,correct
4,34,b14,30,black,nogun,753,correct
4,34,w03,31,white,gun,482,correct
4,34,b95,32,black,nogun,585,correct
4,34,b13,33,black,gun,503,correct
4,34,w17,34,white,gun,637,correct
4,34,b09,35,black,nogun,506,correct
4,34,w19,36,white,nogun,639,correct
4,34,b12,37,black,gun,502,correct
4,34,w95,38,white,nogun,564,correct
4,34,b16,39,black,gun,553,correct
4,34,w97,40,white,nogun,521,correct
4,34,w98,41,white,nogun,619,correct
4,34,w94,42,white,nogun,726,correct
4,34,w93,43,white,nogun,547,correct
4,34,b96,44,black,nogun,474,correct
4,34,w02,45,white,gun,602,correct
4,34,b92,46,black,gun,506,correct
4,34,w16,47,white,gun,631,correct
4,34,w15,48,white,gun,427,correct
4,34,w02,49,white,nogun,530,correct
4,34,w07,50,white,nogun,519,correct
4,34,w13,51,white,nogun,522,correct
4,34,b98,52,black,gun,522,correct
4,34,b02,53,black,gun,540,correct
4,34,b04,54,black,nogun,611,correct
4,34,w05,55,white,nogun,673,correct
4,34,b10,56,black,nogun,663,correct
4,34,w91,57,white,nogun,501,correct
4,34,w17,58,white,nogun,558,correct
4,34,b10,59,black,gun,771,correct
4,34,b12,60,black,nogun,688,correct
4,34,b93,61,black,nogun,491,correct
4,34,b94,62,black,gun,514,correct
4,34,b99,63,black,gun,476,correct
4,34,w06,64,white,gun,466,correct
4,34,w93,65,white,gun,469,correct
4,34,w96,66,white,gun,472,correct
4,34,b04,67,black,gun,490,correct
4,34,b94,68,black,nogun,723,correct
4,34,b97,69,black,nogun,817,correct
4,34,w05,70,white,gun,509,correct
4,34,b93,71,black,gun,492,correct
4,34,w98,72,white,gun,501,correct
4,34,b05,73,black,nogun,633,correct
4,34,w08,74,white,nogun,716,correct
4,34,b08,75,black,nogun,759,correct
4,34,b05,76,black,gun,532,correct
4,34,b91,77,black,nogun,641,correct
4,34,w04,78,white,nogun,565,correct
4,34,w99,79,white,gun,585,correct
4,34,b17,80,black,gun,708,correct
4,34,w92,81,white,nogun,571,correct
4,34,w08,82,white,gun,504,correct
4,34,b97,83,black,gun,617,correct
4,34,b07,84,black,gun,461,correct
4,34,b07,85,black,nogun,706,correct
4,34,w03,86,white,nogun,713,correct
4,34,b09,87,black,gun,592,correct
4,34,w04,88,white,gun,649,correct
4,34,w91,89,white,gun,512,correct
4,34,w90,90,white,nogun,618,correct
4,34,w01,91,white,gun,538,correct
4,34,b03,92,black,gun,517,correct
4,34,w15,93,white,nogun,601,correct
4,34,b08,94,black,gun,443,correct
4,34,b11,95,black,nogun,569,correct
4,34,b01,96,black,nogun,625,correct
4,34,w06,97,white,nogun,615,correct
4,34,b13,98,black,nogun,841,correct
4,34,b90,99,black,nogun,525,correct
4,34,b91,100,black,gun,546,correct
4,34,w16,101,white,nogun,661,correct
4,34,b90,102,black,gun,551,correct
4,34,b16,103,black,nogun,600,correct
4,34,b03,104,black,nogun,554,correct
4,34,b98,105,black,nogun,610,correct
4,34,w96,106,white,nogun,812,correct
4,34,w19,107,white,gun,567,correct
4,34,b17,108,black,nogun,600,correct
4,34,w14,109,white,nogun,578,correct
4,34,b99,110,black,nogun,599,correct
4,34,b14,111,black,gun,548,correct
4,34,w11,112,white,gun,499,correct
4,34,w97,113,white,gun,494,correct
4,34,w13,114,white,gun,712,correct
4,34,w90,115,white,gun,447,correct
4,34,w95,116,white,gun,547,correct
4,34,w92,117,white,gun,678,correct
4,34,w01,118,white,nogun,656,correct
