subject,age,stimulus,trial,race,gun,rt,correct,rate
18,27,b05,20,1,1,615,1,1.6260162601626016
18,27,b04,21,1,0,559,1,1.7889087656529516
18,27,w04,22,0,0,488,0,2.0491803278688523
18,27,b17,23,1,0,719,1,1.3908205841446453
18,27,w02,24,0,1,547,1,1.8281535648994516
18,27,b07,25,1,1,688,1,1.4534883720930232
18,27,b93,26,1,0,530,1,1.8867924528301887
18,27,w13,27,0,0,544,1,1.838235294117647
18,27,w06,28,0,1,552,1,1.8115942028985508
18,27,b16,29,1,0,555,1,1.8018018018018018
18,27,b96,30,1,0,524,1,1.9083969465648856
18,27,w93,31,0,1,492,1,2.032520325203252
18,27,b94,32,1,1,470,1,2.127659574468085
18,27,w03,33,0,1,635,1,1.5748031496062993
18,27,w99,34,0,0,623,1,1.6051364365971108
18,27,b99,35,1,0,593,1,1.6863406408094435
18,27,w16,36,0,0,631,1,1.5847860538827259
18,27,b14,37,1,1,699,1,1.4306151645207439
18,27,b02,38,1,1,486,1,2.05761316872428
18,27,w91,39,0,0,540,1,1.8518518518518519
18,27,w07,40,0,0,571,1,1.7513134851138354
18,27,w14,41,0,1,496,1,2.0161290322580645
18,27,b05,42,1,0,594,1,1.6835016835016836
18,27,b17,43,1,1,586,0,1.7064846416382253
18,27,w95,44,0,0,642,1,1.557632398753894
18,27,b12,45,1,1,763,1,1.3106159895150722
18,27,w90,46,0,1,489,1,2.044989775051125
18,27,w19,47,0,0,769,1,1.3003901170351104
18,27,b98,48,1,0,744,1,1.3440860215053763
18,27,w94,49,0,0,607,1,1.6474464579901154
18,27,w91,51,0,1,605,1,1.6528925619834711
18,27,b91,52,1,0,664,1,1.5060240963855422
18,27,w94,53,0,1,506,1,1.976284584980237
18,27,b09,54,1,0,620,1,1.6129032258064515
18,27,b90,55,1,1,644,1,1.5527950310559007
18,27,b92,56,1,1,685,1,1.4598540145985401
18,27,w15,57,0,1,525,1,1.9047619047619047
18,27,w96,58,0,0,744,1,1.3440860215053763
18,27,w07,59,0,1,455,1,2.197802197802198
18,27,b94,60,1,0,614,1,1.6286644951140066
18,27,w11,61,0,1,617,1,1.6207455429497568
18,27,b10,62,1,0,807,1,1.2391573729863692
18,27,b03,63,1,0,569,1,1.757469244288225
18,27,b01,64,1,1,726,0,1.3774104683195592
18,27,b07,66,1,0,812,0,1.2315270935960592
18,27,b93,67,1,1,694,1,1.440922190201729
18,27,w93,68,0,0,687,1,1.455604075691412
18,27,w15,69,0,0,551,1,1.8148820326678765
18,27,w04,70,0,1,550,1,1.8181818181818181
18,27,b12,71,1,0,713,1,1.402524544179523
18,27,w96,72,0,1,614,0,1.6286644951140066
18,27,b14,73,1,0,548,1,1.8248175182481752
18,27,b98,74,1,1,525,1,1.9047619047619047
18,27,w08,75,0,0,764,1,1.3089005235602094
18,27,b11,76,1,1,594,1,1.6835016835016836
18,27,b03,77,1,1,536,1,1.8656716417910448
18,27,b02,78,1,0,525,1,1.9047619047619047
18,27,b96,79,1,1,538,1,1.858736059479554
18,27,b08,80,1,0,670,1,1.492537313432836
18,27,b13,81,1,0,628,1,1.5923566878980893
18,27,b13,82,1,1,517,1,1.9342359767891684
18,27,w14,83,0,0,735,1,1.3605442176870748
18,27,b91,84,1,1,755,1,1.3245033112582782
18,27,w17,85,0,1,597,0,1.6750418760469012
18,27,w11,86,0,0,624,1,1.6025641025641026
18,27,w05,87,0,1,498,1,2.0080321285140563
18,27,w16,88,0,1,827,1,1.2091898428053205
18,27,w13,89,0,1,598,1,1.6722408026755853
18,27,b97,90,1,0,766,1,1.3054830287206267
18,27,w05,91,0,0,719,1,1.3908205841446453
18,27,w17,93,0,0,606,1,1.6501650165016502
18,27,b16,94,1,1,558,1,1.7921146953405018
18,27,w99,95,0,1,618,1,1.6181229773462784
18,27,w02,96,0,0,558,1,1.7921146953405018
18,27,w01,97,0,0,777,1,1.287001287001287
18,27,w98,98,0,1,533,1,1.876172607879925
18,27,w98,99,0,0,746,1,1.3404825737265416
18,27,b90,100,1,0,788,1,1.2690355329949239
18,27,w03,101,0,0,790,1,1.2658227848101267
18,27,w08,102,0,1,717,1,1.394700139470014
18,27,b04,103,1,1,621,1,1.6103059581320451
18,27,b99,104,1,1,518,1,1.9305019305019304
18,27,b08,106,1,1,570,1,1.7543859649122806
18,27,b11,107,1,0,684,1,1.4619883040935673
18,27,b97,108,1,1,540,1,1.8518518518518519
18,27,w19,109,0,1,737,1,1.3568521031207599
18,27,w90,110,0,0,625,1,1.6
18,27,w06,111,0,0,565,1,1.7699115044247788
18,27,w01,112,0,1,611,1,1.6366612111292962
18,27,w95,113,0,1,777,1,1.287001287001287
18,27,w92,114,0,0,633,1,1.5797788309636651
18,27,w97,115,0,1,466,1,2.1459227467811157
18,27,b95,116,1,0,592,1,1.6891891891891893
18,27,b01,117,1,0,739,1,1.3531799729364005
18,27,b09,118,1,1,674,0,1.4836795252225519
24,24,w07,19,0,1,645,1,1.550387596899225
24,24,w91,20,0,1,594,1,1.6835016835016836
24,24,b17,21,1,1,644,1,1.5527950310559007
24,24,w02,22,0,1,508,1,1.968503937007874
24,24,b91,24,1,1,509,1,1.9646365422396856
24,24,w98,25,0,1,514,1,1.9455252918287937
24,24,w94,26,0,1,488,1,2.0491803278688523
24,24,b90,27,1,1,549,1,1.8214936247723132
24,24,b13,28,1,1,503,1,1.9880715705765408
24,24,w95,29,0,0,606,1,1.6501650165016502
24,24,w96,30,0,0,756,1,1.3227513227513228
24,24,w08,31,0,0,515,0,1.941747572815534
24,24,b14,32,1,0,829,1,1.2062726176115801
24,24,b11,33,1,0,770,1,1.2987012987012987
24,24,b05,34,1,1,496,1,2.0161290322580645
24,24,w95,35,0,1,639,1,1.5649452269170578
24,24,w94,36,0,0,636,1,1.5723270440251573
24,24,w07,37,0,0,683,1,1.4641288433382138
24,24,w03,38,0,1,620,1,1.6129032258064515
24,24,w17,39,0,1,782,1,1.278772378516624
24,24,b98,40,1,1,566,1,1.7667844522968197
24,24,b07,41,1,0,757,1,1.321003963011889
24,24,b92,42,1,0,820,1,1.2195121951219512
24,24,w08,43,0,1,824,1,1.2135922330097086
24,24,b11,44,1,1,782,1,1.278772378516624
24,24,b95,45,1,0,668,1,1.4970059880239521
24,24,w93,46,0,0,673,1,1.485884101040119
24,24,w97,47,0,1,651,1,1.5360983102918586
24,24,w15,48,0,1,543,1,1.8416206261510129
24,24,w98,50,0,0,695,1,1.4388489208633093
24,24,b93,51,1,1,521,1,1.9193857965451055
24,24,w04,52,0,0,671,1,1.4903129657228018
24,24,b94,53,1,0,699,1,1.4306151645207439
24,24,w90,54,0,0,677,1,1.4771048744460857
24,24,w05,55,0,1,527,1,1.8975332068311195
24,24,b03,56,1,1,523,1,1.9120458891013383
24,24,b01,57,1,0,792,1,1.2626262626262625
24,24,b93,58,1,0,667,1,1.4992503748125936
24,24,w15,59,0,0,684,1,1.4619883040935673
24,24,w01,60,0,0,704,1,1.4204545454545454
24,24,b01,61,1,1,585,1,1.7094017094017093
24,24,w04,62,0,1,561,1,1.7825311942959001
24,24,w99,63,0,1,683,1,1.4641288433382138
24,24,b16,64,1,0,791,1,1.2642225031605563
24,24,b02,65,1,0,710,1,1.408450704225352
24,24,w16,66,0,0,676,1,1.4792899408284024
24,24,w03,67,0,0,790,1,1.2658227848101267
24,24,b98,68,1,0,664,1,1.5060240963855422
24,24,b92,69,1,1,602,1,1.6611295681063123
24,24,b08,70,1,1,491,1,2.0366598778004072
24,24,b16,71,1,1,590,1,1.694915254237288
24,24,b12,72,1,0,811,1,1.2330456226880395
24,24,w13,73,0,0,620,1,1.6129032258064515
24,24,b13,74,1,0,687,1,1.455604075691412
24,24,b09,75,1,1,591,1,1.6920473773265652
24,24,b95,76,1,1,689,1,1.4513788098693758
24,24,b09,77,1,0,677,1,1.4771048744460857
24,24,w90,78,0,1,556,1,1.7985611510791366
24,24,w11,79,0,1,660,1,1.5151515151515151
24,24,b96,80,1,1,511,1,1.9569471624266144
24,24,w19,81,0,0,702,1,1.4245014245014245
24,24,w96,82,0,1,578,1,1.7301038062283738
24,24,w11,83,0,0,627,1,1.594896331738437
24,24,b90,84,1,0,743,1,1.3458950201884252
24,24,w06,85,0,1,626,1,1.597444089456869
24,24,b99,86,1,0,760,1,1.3157894736842106
24,24,w14,87,0,1,653,1,1.5313935681470139
24,24,b96,88,1,0,530,1,1.8867924528301887
24,24,w19,89,0,1,477,1,2.0964360587002098
24,24,w99,90,0,0,704,1,1.4204545454545454
24,24,b12,91,1,1,548,1,1.8248175182481752
24,24,b05,93,1,0,698,1,1.4326647564469914
24,24,w93,94,0,1,584,1,1.7123287671232876
24,24,w16,95,0,1,580,1,1.7241379310344827
24,24,b02,96,1,1,591,1,1.6920473773265652
24,24,w02,97,0,0,621,1,1.6103059581320451
24,24,b14,99,1,1,636,1,1.5723270440251573
24,24,b91,100,1,0,561,1,1.7825311942959001
24,24,w91,101,0,0,661,1,1.51285930408472
24,24,w01,102,0,1,529,1,1.890359168241966
24,24,w17,103,0,0,756,1,1.3227513227513228
24,24,b04,104,1,0,746,1,1.3404825737265416
24,24,w05,105,0,0,739,1,1.3531799729364005
24,24,w13,106,0,1,575,1,1.7391304347826086
24,24,b97,107,1,0,747,1,1.3386880856760375
24,24,b94,108,1,1,586,1,1.7064846416382253
24,24,b10,109,1,1,803,1,1.2453300124533002
24,24,b04,110,1,1,566,1,1.7667844522968197
24,24,b97,111,1,1,541,1,1.8484288354898337
24,24,b07,112,1,1,528,1,1.893939393939394
24,24,w97,113,0,0,590,1,1.694915254237288
24,24,b17,114,1,0,770,1,1.2987012987012987
24,24,b99,115,1,1,538,1,1.858736059479554
24,24,w14,116,0,0,748,1,1.3368983957219251
16,28,w96,19,0,1,546,1,1.8315018315018314
16,28,b16,20,1,1,497,1,2.0120724346076457
16,28,b08,21,1,0,614,1,1.6286644951140066
16,28,b11,22,1,1,452,1,2.2123893805309733
16,28,b13,23,1,1,490,1,2.0408163265306123
16,28,w16,24,0,1,350,0,2.857142857142857
16,28,b04,26,1,1,548,1,1.8248175182481752
16,28,w17,27,0,0,405,1,2.4691358024691357
16,28,w13,28,0,0,582,1,1.7182130584192439
16,28,w19,29,0,0,579,1,1.7271157167530224
16,28,b17,30,1,1,579,1,1.7271157167530224
16,28,w98,31,0,0,620,1,1.6129032258064515
16,28,w95,32,0,0,587,1,1.7035775127768313
16,28,w99,33,0,1,714,1,1.4005602240896358
16,28,w16,34,0,0,537,1,1.86219739292365
16,28,b96,35,1,1,406,1,2.4630541871921183
16,28,b05,36,1,1,392,1,2.5510204081632653
16,28,w90,37,0,0,532,1,1.8796992481203008
16,28,b03,38,1,0,567,1,1.763668430335097
16,28,b02,39,1,0,478,1,2.092050209205021
16,28,b01,40,1,1,374,0,2.6737967914438503
16,28,b90,41,1,1,488,1,2.0491803278688523
16,28,b93,42,1,1,535,1,1.8691588785046729
16,28,w11,43,0,1,483,1,2.070393374741201
16,28,b04,44,1,0,698,1,1.4326647564469914
16,28,b07,45,1,1,464,1,2.1551724137931036
16,28,b10,46,1,1,466,1,2.1459227467811157
16,28,w91,47,0,1,498,1,2.0080321285140563
16,28,b10,48,1,0,520,0,1.9230769230769231
16,28,b97,49,1,0,838,1,1.1933174224343674
16,28,w14,50,0,1,475,1,2.1052631578947367
16,28,w01,51,0,0,696,1,1.4367816091954022
16,28,w90,52,0,1,509,1,1.9646365422396856
16,28,b90,53,1,0,626,1,1.597444089456869
16,28,b07,54,1,0,656,1,1.524390243902439
16,28,b14,55,1,1,500,1,2.0
16,28,b14,56,1,0,661,1,1.51285930408472
16,28,w99,57,0,0,663,1,1.5082956259426847
16,28,b01,58,1,0,639,1,1.5649452269170578
16,28,b17,59,1,0,622,1,1.607717041800643
16,28,b03,60,1,1,528,1,1.893939393939394
16,28,w91,61,0,0,581,1,1.721170395869191
16,28,b91,62,1,0,631,1,1.5847860538827259
16,28,b93,63,1,0,552,1,1.8115942028985508
16,28,b91,64,1,1,509,1,1.9646365422396856
16,28,b11,65,1,0,515,1,1.941747572815534
16,28,w07,66,0,1,630,1,1.5873015873015872
16,28,b02,67,1,1,496,1,2.0161290322580645
16,28,w04,68,0,1,514,1,1.9455252918287937
16,28,b12,69,1,1,478,1,2.092050209205021
16,28,b92,70,1,1,463,1,2.159827213822894
16,28,w92,71,0,0,573,1,1.7452006980802792
16,28,b98,72,1,0,727,1,1.375515818431912
16,28,b92,73,1,0,614,1,1.6286644951140066
16,28,w15,74,0,0,548,1,1.8248175182481752
16,28,w13,75,0,1,543,1,1.8416206261510129
16,28,b13,76,1,0,489,0,2.044989775051125
16,28,w95,77,0,1,639,1,1.5649452269170578
16,28,w19,78,0,1,565,1,1.7699115044247788
16,28,w02,79,0,1,551,1,1.8148820326678765
16,28,b08,80,1,1,490,1,2.0408163265306123
16,28,b98,81,1,1,487,1,2.0533880903490758
16,28,w11,82,0,0,444,0,2.2522522522522523
16,28,b12,84,1,0,748,1,1.3368983957219251
16,28,w97,85,0,1,599,1,1.669449081803005
16,28,w03,86,0,1,711,1,1.4064697609001406
16,28,w93,87,0,1,543,1,1.8416206261510129
16,28,w08,88,0,1,574,1,1.7421602787456445
16,28,b96,89,1,0,505,1,1.9801980198019802
16,28,b05,90,1,0,715,1,1.3986013986013985
16,28,b09,91,1,1,599,1,1.669449081803005
16,28,b99,92,1,1,540,1,1.8518518518518519
16,28,w93,93,0,0,620,1,1.6129032258064515
16,28,w92,94,0,1,594,1,1.6835016835016836
16,28,b94,95,1,0,808,1,1.2376237623762376
16,28,b95,96,1,1,452,1,2.2123893805309733
16,28,w98,97,0,1,501,1,1.996007984031936
16,28,w94,98,0,0,551,1,1.8148820326678765
16,28,b09,99,1,0,524,1,1.9083969465648856
16,28,w17,100,0,1,524,1,1.9083969465648856
16,28,w08,101,0,0,585,1,1.7094017094017093
16,28,w07,102,0,0,593,1,1.6863406408094435
16,28,b94,103,1,1,473,1,2.1141649048625792
16,28,b95,104,1,0,596,1,1.6778523489932886
16,28,b97,105,1,1,676,1,1.4792899408284024
16,28,w97,106,0,0,555,1,1.8018018018018018
16,28,b99,107,1,0,521,1,1.9193857965451055
16,28,w06,108,0,1,576,1,1.7361111111111112
16,28,w96,109,0,0,590,1,1.694915254237288
16,28,w02,110,0,0,544,1,1.838235294117647
16,28,b16,111,1,0,540,1,1.8518518518518519
16,28,w94,112,0,1,496,1,2.0161290322580645
16,28,w06,113,0,0,549,1,1.8214936247723132
16,28,w01,114,0,1,534,1,1.8726591760299625
16,28,w04,115,0,0,617,1,1.6207455429497568
16,28,w15,116,0,1,394,1,2.5380710659898478
16,28,w03,117,0,0,656,1,1.524390243902439
16,28,w05,118,0,1,486,1,2.05761316872428
31,20,b90,19,1,1,478,1,2.092050209205021
31,20,b92,20,1,0,600,1,1.6666666666666667
31,20,w92,21,0,0,573,1,1.7452006980802792
31,20,w98,22,0,0,572,1,1.7482517482517483
31,20,b13,23,1,1,372,1,2.6881720430107525
31,20,w14,24,0,1,410,1,2.4390243902439024
31,20,b07,25,1,0,458,0,2.183406113537118
31,20,b90,26,1,0,669,1,1.4947683109118086
31,20,b12,27,1,0,668,1,1.4970059880239521
31,20,b97,28,1,0,687,1,1.455604075691412
31,20,w04,29,0,0,622,1,1.607717041800643
31,20,w05,30,0,0,689,1,1.4513788098693758
31,20,w90,31,0,1,513,1,1.949317738791423
31,20,w03,32,0,1,484,1,2.0661157024793386
31,20,w11,33,0,1,537,1,1.86219739292365
31,20,w01,34,0,0,665,1,1.5037593984962405
31,20,b96,35,1,0,518,1,1.9305019305019304
31,20,w91,36,0,1,691,1,1.447178002894356
31,20,b91,37,1,1,438,1,2.2831050228310503
31,20,b13,38,1,0,577,1,1.733102253032929
31,20,w13,39,0,1,551,1,1.8148820326678765
31,20,w03,40,0,0,502,0,1.9920318725099602
31,20,w96,41,0,1,597,1,1.6750418760469012
31,20,b09,42,1,1,649,1,1.5408320493066257
31,20,b93,43,1,1,579,1,1.7271157167530224
31,20,b97,44,1,1,497,1,2.0120724346076457
31,20,b02,45,1,0,586,1,1.7064846416382253
31,20,b03,46,1,1,497,1,2.0120724346076457
31,20,b16,47,1,1,536,1,1.8656716417910448
31,20,b01,48,1,0,546,1,1.8315018315018314
31,20,w08,49,0,0,669,1,1.4947683109118086
31,20,b98,50,1,1,507,1,1.9723865877712032
31,20,w13,51,0,0,565,1,1.7699115044247788
31,20,w04,52,0,1,548,1,1.8248175182481752
31,20,w05,53,0,1,441,1,2.2675736961451247
31,20,w08,54,0,1,529,1,1.890359168241966
31,20,w11,55,0,0,641,1,1.5600624024960998
31,20,w06,56,0,0,643,1,1.5552099533437014
31,20,b11,58,1,0,631,1,1.5847860538827259
31,20,w02,59,0,1,516,0,1.937984496124031
31,20,w17,60,0,0,576,1,1.7361111111111112
31,20,w93,61,0,1,492,1,2.032520325203252
31,20,b08,62,1,1,517,1,1.9342359767891684
31,20,w99,63,0,1,517,1,1.9342359767891684
31,20,w92,64,0,1,741,1,1.349527665317139
31,20,b03,65,1,0,564,1,1.7730496453900708
31,20,b04,66,1,0,697,1,1.4347202295552368
31,20,w99,67,0,0,544,1,1.838235294117647
31,20,w14,68,0,0,551,1,1.8148820326678765
31,20,b09,69,1,0,579,1,1.7271157167530224
31,20,b98,70,1,0,657,1,1.5220700152207
31,20,b10,71,1,1,733,1,1.364256480218281
31,20,w96,72,0,0,675,1,1.4814814814814814
31,20,w97,73,0,0,498,1,2.0080321285140563
31,20,w19,74,0,1,555,1,1.8018018018018018
31,20,w97,75,0,1,480,1,2.0833333333333335
31,20,w07,76,0,0,534,1,1.8726591760299625
31,20,b02,77,1,1,499,1,2.004008016032064
31,20,b07,78,1,1,516,1,1.937984496124031
31,20,w15,79,0,0,526,1,1.9011406844106464
31,20,b95,80,1,0,553,1,1.8083182640144666
31,20,w95,81,0,0,609,1,1.6420361247947455
31,20,w02,82,0,0,514,1,1.9455252918287937
31,20,w16,83,0,1,717,1,1.394700139470014
31,20,w16,84,0,0,693,1,1.443001443001443
31,20,w91,85,0,0,545,1,1.834862385321101
31,20,b93,86,1,0,613,1,1.6313213703099512
31,20,b05,87,1,0,721,1,1.3869625520110958
31,20,w93,88,0,0,575,1,1.7391304347826086
31,20,b01,89,1,1,492,1,2.032520325203252
31,20,b17,90,1,1,796,1,1.256281407035176
31,20,b94,91,1,1,433,1,2.3094688221709005
31,20,b12,92,1,1,494,1,2.0242914979757085
31,20,w07,93,0,1,569,1,1.757469244288225
31,20,w17,94,0,1,672,1,1.4880952380952381
31,20,w95,95,0,1,545,1,1.834862385321101
31,20,b91,96,1,0,573,1,1.7452006980802792
31,20,b14,97,1,1,488,1,2.0491803278688523
31,20,b04,98,1,1,530,1,1.8867924528301887
31,20,b14,99,1,0,740,1,1.3513513513513513
31,20,w19,100,0,0,660,1,1.5151515151515151
31,20,w01,101,0,1,559,1,1.7889087656529516
31,20,b94,103,1,0,621,1,1.6103059581320451
31,20,w94,104,0,0,618,1,1.6181229773462784
31,20,w94,105,0,1,455,1,2.197802197802198
31,20,w15,106,0,1,442,1,2.262443438914027
31,20,b05,107,1,1,528,1,1.893939393939394
31,20,w06,108,0,1,488,1,2.0491803278688523
31,20,w98,109,0,1,465,1,2.150537634408602
31,20,w90,110,0,0,625,1,1.6
31,20,b92,111,1,1,463,1,2.159827213822894
31,20,b16,112,1,0,517,1,1.9342359767891684
31,20,b95,113,1,1,544,1,1.838235294117647
31,20,b99,114,1,0,618,1,1.6181229773462784
31,20,b11,115,1,1,482,1,2.074688796680498
31,20,b96,116,1,1,448,1,2.232142857142857
31,20,b17,117,1,0,602,1,1.6611295681063123
31,20,b99,118,1,1,424,1,2.358490566037736
11,30,w91,19,0,0,599,1,1.669449081803005
11,30,b93,20,1,1,677,1,1.4771048744460857
11,30,w13,21,0,0,634,1,1.5772870662460567
11,30,w92,22,0,1,667,1,1.4992503748125936
11,30,b97,23,1,1,611,1,1.6366612111292962
11,30,w95,24,0,1,690,1,1.4492753623188406
11,30,b13,25,1,0,697,1,1.4347202295552368
11,30,b12,26,1,1,527,1,1.8975332068311195
11,30,b11,27,1,0,612,1,1.6339869281045751
11,30,w11,28,0,0,611,1,1.6366612111292962
11,30,w90,29,0,1,527,1,1.8975332068311195
11,30,b03,30,1,1,576,1,1.7361111111111112
11,30,w14,31,0,1,576,1,1.7361111111111112
11,30,w02,32,0,1,639,1,1.5649452269170578
11,30,w14,33,0,0,577,1,1.733102253032929
11,30,b95,34,1,1,503,1,1.9880715705765408
11,30,w05,35,0,0,737,1,1.3568521031207599
11,30,b99,36,1,0,706,1,1.4164305949008498
11,30,w97,37,0,1,564,1,1.7730496453900708
11,30,w99,38,0,0,629,1,1.589825119236884
11,30,w93,39,0,1,591,1,1.6920473773265652
11,30,b10,40,1,0,662,1,1.5105740181268883
11,30,w16,41,0,1,594,1,1.6835016835016836
11,30,b16,42,1,0,596,1,1.6778523489932886
11,30,w03,43,0,0,737,1,1.3568521031207599
11,30,w06,44,0,0,614,1,1.6286644951140066
11,30,b99,45,1,1,468,1,2.1367521367521367
11,30,b12,46,1,0,652,1,1.5337423312883436
11,30,w06,47,0,1,783,1,1.277139208173691
11,30,w15,48,0,0,483,1,2.070393374741201
11,30,b90,49,1,1,750,1,1.3333333333333333
11,30,b09,50,1,0,607,1,1.6474464579901154
11,30,w19,51,0,1,607,1,1.6474464579901154
11,30,w04,52,0,1,620,1,1.6129032258064515
11,30,w15,53,0,1,484,1,2.0661157024793386
11,30,b08,54,1,1,526,1,1.9011406844106464
11,30,b11,55,1,1,701,1,1.4265335235378032
11,30,b94,56,1,0,623,1,1.6051364365971108
11,30,w13,57,0,1,592,1,1.6891891891891893
11,30,w90,58,0,0,660,1,1.5151515151515151
11,30,w11,59,0,1,514,1,1.9455252918287937
11,30,w93,60,0,0,604,1,1.6556291390728477
11,30,b97,61,1,0,701,1,1.4265335235378032
11,30,w03,63,0,1,551,1,1.8148820326678765
11,30,w02,64,0,0,513,1,1.949317738791423
11,30,b07,65,1,0,657,1,1.5220700152207
11,30,b90,66,1,0,551,1,1.8148820326678765
11,30,w94,67,0,1,601,1,1.663893510815308
11,30,w97,68,0,0,571,1,1.7513134851138354
11,30,b96,69,1,0,539,1,1.8552875695732838
11,30,b92,70,1,1,644,1,1.5527950310559007
11,30,b02,71,1,0,687,1,1.455604075691412
11,30,b17,72,1,1,731,1,1.3679890560875514
11,30,w07,73,0,1,591,1,1.6920473773265652
11,30,b91,74,1,0,634,1,1.5772870662460567
11,30,b09,75,1,1,747,1,1.3386880856760375
11,30,w16,76,0,0,710,1,1.408450704225352
11,30,b92,77,1,0,675,1,1.4814814814814814
11,30,w08,78,0,0,700,1,1.4285714285714286
11,30,b93,79,1,0,654,1,1.529051987767584
11,30,w01,80,0,1,647,1,1.545595054095827
11,30,b98,81,1,0,814,0,1.2285012285012284
11,30,b16,82,1,1,615,1,1.6260162601626016
11,30,w99,83,0,1,532,1,1.8796992481203008
11,30,b05,84,1,0,749,1,1.335113484646195
11,30,w17,85,0,0,641,1,1.5600624024960998
11,30,b98,86,1,1,524,1,1.9083969465648856
11,30,w07,87,0,0,578,1,1.7301038062283738
11,30,b13,88,1,1,560,1,1.7857142857142858
11,30,w96,89,0,1,647,1,1.545595054095827
11,30,w01,90,0,0,643,1,1.5552099533437014
11,30,w19,92,0,0,607,1,1.6474464579901154
11,30,w98,93,0,1,523,1,1.9120458891013383
11,30,w94,94,0,0,527,1,1.8975332068311195
11,30,b91,95,1,1,508,1,1.968503937007874
11,30,b01,96,1,0,668,1,1.4970059880239521
11,30,b03,97,1,0,557,1,1.7953321364452424
11,30,w17,98,0,1,793,1,1.2610340479192939
11,30,b14,99,1,1,547,1,1.8281535648994516
11,30,b04,100,1,0,581,1,1.721170395869191
11,30,w95,101,0,0,544,1,1.838235294117647
11,30,b10,102,1,1,745,1,1.342281879194631
11,30,w91,103,0,1,668,1,1.4970059880239521
11,30,b96,104,1,1,550,1,1.8181818181818181
11,30,b07,105,1,1,475,1,2.1052631578947367
11,30,b17,106,1,0,537,1,1.86219739292365
11,30,w98,107,0,0,710,1,1.408450704225352
11,30,b04,108,1,1,654,1,1.529051987767584
11,30,w92,109,0,0,542,1,1.845018450184502
11,30,w04,110,0,0,555,1,1.8018018018018018
11,30,w05,111,0,1,548,1,1.8248175182481752
11,30,b95,112,1,0,590,1,1.694915254237288
11,30,b08,113,1,0,674,1,1.4836795252225519
11,30,b01,114,1,1,487,1,2.0533880903490758
11,30,b05,115,1,1,638,1,1.567398119122257
11,30,b94,116,1,1,588,1,1.7006802721088434
11,30,b14,117,1,0,630,1,1.5873015873015872
11,30,b02,118,1,1,605,1,1.6528925619834711
27,22,b17,19,1,0,515,1,1.941747572815534
27,22,b94,20,1,0,560,0,1.7857142857142858
27,22,w90,21,0,1,532,1,1.8796992481203008
27,22,b12,22,1,0,523,1,1.9120458891013383
27,22,b10,23,1,1,655,0,1.5267175572519085
27,22,b03,24,1,1,476,1,2.100840336134454
27,22,b07,25,1,1,503,1,1.9880715705765408
27,22,b92,26,1,1,559,1,1.7889087656529516
27,22,b16,27,1,1,573,1,1.7452006980802792
27,22,b04,28,1,0,551,1,1.8148820326678765
27,22,b05,29,1,1,569,1,1.757469244288225
27,22,b11,30,1,1,706,1,1.4164305949008498
27,22,w98,31,0,1,558,1,1.7921146953405018
27,22,w98,32,0,0,751,1,1.3315579227696406
27,22,w93,34,0,0,644,1,1.5527950310559007
27,22,w19,35,0,1,525,1,1.9047619047619047
27,22,b14,36,1,1,585,1,1.7094017094017093
27,22,w97,37,0,1,609,1,1.6420361247947455
27,22,w04,38,0,0,603,1,1.658374792703151
27,22,w06,39,0,1,655,1,1.5267175572519085
27,22,w16,40,0,1,558,1,1.7921146953405018
27,22,w90,41,0,0,678,1,1.4749262536873156
27,22,b93,42,1,1,524,1,1.9083969465648856
27,22,b91,43,1,0,777,1,1.287001287001287
27,22,w11,44,0,1,508,1,1.968503937007874
27,22,w13,45,0,1,488,1,2.0491803278688523
27,22,b09,46,1,0,581,1,1.721170395869191
27,22,b12,47,1,1,518,1,1.9305019305019304
27,22,w05,48,0,1,435,1,2.2988505747126435
27,22,w91,49,0,1,604,1,1.6556291390728477
27,22,w94,50,0,1,428,1,2.336448598130841
27,22,b08,51,1,1,440,1,2.272727272727273
27,22,w05,52,0,0,484,0,2.0661157024793386
27,22,b07,54,1,0,713,1,1.402524544179523
27,22,w95,55,0,1,742,1,1.3477088948787062
27,22,w01,56,0,0,589,1,1.697792869269949
27,22,b98,58,1,0,577,1,1.733102253032929
27,22,b91,59,1,1,521,1,1.9193857965451055
27,22,b02,60,1,1,622,1,1.607717041800643
27,22,w14,61,0,1,456,1,2.192982456140351
27,22,b96,62,1,0,524,1,1.9083969465648856
27,22,w95,63,0,0,596,1,1.6778523489932886
27,22,w19,64,0,0,716,1,1.3966480446927374
27,22,w99,65,0,1,661,1,1.51285930408472
27,22,b97,66,1,1,551,1,1.8148820326678765
27,22,w16,67,0,0,546,1,1.8315018315018314
27,22,b11,68,1,0,572,1,1.7482517482517483
27,22,b10,69,1,0,541,1,1.8484288354898337
27,22,b05,70,1,0,528,1,1.893939393939394
27,22,w92,71,0,0,558,1,1.7921146953405018
27,22,b13,72,1,1,444,1,2.2522522522522523
27,22,w99,73,0,0,555,1,1.8018018018018018
27,22,b92,74,1,0,539,1,1.8552875695732838
27,22,w03,75,0,1,574,0,1.7421602787456445
27,22,b16,76,1,0,680,1,1.4705882352941178
27,22,w15,77,0,1,513,1,1.949317738791423
27,22,b04,78,1,1,569,1,1.757469244288225
27,22,b01,79,1,1,501,1,1.996007984031936
27,22,b93,80,1,0,622,1,1.607717041800643
27,22,w93,81,0,1,526,1,1.9011406844106464
27,22,w94,82,0,0,586,1,1.7064846416382253
27,22,w02,83,0,0,604,1,1.6556291390728477
27,22,b99,84,1,0,583,1,1.7152658662092624
27,22,b09,85,1,1,713,1,1.402524544179523
27,22,w96,86,0,0,792,1,1.2626262626262625
27,22,w14,87,0,0,629,1,1.589825119236884
27,22,w92,88,0,1,790,1,1.2658227848101267
27,22,w13,89,0,0,548,1,1.8248175182481752
27,22,b95,90,1,1,597,1,1.6750418760469012
27,22,w07,91,0,0,566,1,1.7667844522968197
27,22,b99,92,1,1,483,1,2.070393374741201
27,22,w96,93,0,1,506,1,1.976284584980237
27,22,w04,94,0,1,578,1,1.7301038062283738
27,22,w91,95,0,0,519,1,1.9267822736030829
27,22,w97,96,0,0,636,1,1.5723270440251573
27,22,w15,97,0,0,480,1,2.0833333333333335
27,22,b03,98,1,0,702,1,1.4245014245014245
27,22,b01,100,1,0,635,1,1.5748031496062993
27,22,b95,101,1,0,524,1,1.9083969465648856
27,22,b90,102,1,0,625,1,1.6
27,22,b94,103,1,1,502,1,1.9920318725099602
27,22,b90,104,1,1,586,1,1.7064846416382253
27,22,w08,105,0,0,789,1,1.267427122940431
27,22,b17,106,1,1,562,1,1.7793594306049823
27,22,w03,107,0,0,780,1,1.2820512820512822
27,22,b02,108,1,0,507,1,1.9723865877712032
27,22,b96,109,1,1,568,1,1.7605633802816902
27,22,w02,110,0,1,619,1,1.615508885298869
27,22,w11,111,0,0,546,1,1.8315018315018314
27,22,w07,112,0,1,517,1,1.9342359767891684
27,22,w08,113,0,1,660,1,1.5151515151515151
27,22,b14,114,1,0,611,1,1.6366612111292962
27,22,w06,115,0,0,755,1,1.3245033112582782
27,22,b98,116,1,1,521,1,1.9193857965451055
27,22,w01,117,0,1,581,1,1.721170395869191
27,22,b13,118,1,0,764,1,1.3089005235602094
26,23,b07,19,1,0,581,0,1.721170395869191
26,23,w99,20,0,1,594,1,1.6835016835016836
26,23,b90,21,1,0,625,1,1.6
26,23,b95,22,1,1,437,1,2.288329519450801
26,23,w92,23,0,1,661,1,1.51285930408472
26,23,w14,24,0,0,665,1,1.5037593984962405
26,23,b08,25,1,1,503,1,1.9880715705765408
26,23,w97,26,0,0,533,1,1.876172607879925
26,23,b91,27,1,1,450,1,2.2222222222222223
26,23,b92,28,1,0,717,1,1.394700139470014
26,23,w96,29,0,0,747,1,1.3386880856760375
26,23,b11,30,1,1,499,1,2.004008016032064
26,23,b97,31,1,1,591,1,1.6920473773265652
26,23,w92,32,0,0,588,1,1.7006802721088434
26,23,w02,33,0,1,511,1,1.9569471624266144
26,23,b98,35,1,1,434,1,2.304147465437788
26,23,b12,36,1,1,407,1,2.457002457002457
26,23,w05,37,0,0,622,1,1.607717041800643
26,23,b05,38,1,0,648,1,1.5432098765432098
26,23,w95,39,0,0,577,1,1.733102253032929
26,23,w03,40,0,0,738,1,1.3550135501355014
26,23,b16,41,1,1,519,1,1.9267822736030829
26,23,w14,42,0,1,365,1,2.73972602739726
26,23,w13,43,0,0,547,1,1.8281535648994516
26,23,w03,44,0,1,466,1,2.1459227467811157
26,23,w11,45,0,1,472,1,2.1186440677966103
26,23,b14,46,1,0,740,1,1.3513513513513513
26,23,w93,47,0,1,488,1,2.0491803278688523
26,23,w07,48,0,0,556,1,1.7985611510791366
26,23,b12,49,1,0,651,1,1.5360983102918586
26,23,b93,50,1,1,526,1,1.9011406844106464
26,23,w97,51,0,1,460,1,2.1739130434782608
26,23,w15,52,0,0,525,1,1.9047619047619047
26,23,w91,53,0,0,536,1,1.8656716417910448
26,23,w13,54,0,1,515,1,1.941747572815534
26,23,b94,55,1,1,450,1,2.2222222222222223
26,23,b04,56,1,1,495,1,2.0202020202020203
26,23,w96,57,0,1,467,1,2.1413276231263385
26,23,b93,58,1,0,598,1,1.6722408026755853
26,23,w99,59,0,0,643,1,1.5552099533437014
26,23,b96,60,1,1,572,1,1.7482517482517483
26,23,w17,61,0,0,616,1,1.6233766233766234
26,23,w07,62,0,1,612,1,1.6339869281045751
26,23,w04,63,0,1,459,1,2.178649237472767
26,23,b03,64,1,1,569,1,1.757469244288225
26,23,b99,65,1,0,632,1,1.5822784810126582
26,23,b94,66,1,0,637,1,1.5698587127158556
26,23,b98,67,1,0,644,1,1.5527950310559007
26,23,b05,68,1,1,494,1,2.0242914979757085
26,23,w11,69,0,0,611,1,1.6366612111292962
26,23,w19,70,0,1,474,0,2.109704641350211
26,23,b16,71,1,0,583,1,1.7152658662092624
26,23,b11,72,1,0,618,1,1.6181229773462784
26,23,w06,73,0,1,721,1,1.3869625520110958
26,23,w16,74,0,1,640,1,1.5625
26,23,w08,75,0,1,555,1,1.8018018018018018
26,23,w90,76,0,0,635,1,1.5748031496062993
26,23,b04,78,1,0,634,1,1.5772870662460567
26,23,b01,79,1,0,618,1,1.6181229773462784
26,23,b13,80,1,1,524,1,1.9083969465648856
26,23,b13,81,1,0,555,1,1.8018018018018018
26,23,w08,82,0,0,602,1,1.6611295681063123
26,23,w19,83,0,0,597,1,1.6750418760469012
26,23,b09,84,1,1,560,0,1.7857142857142858
26,23,w04,85,0,0,686,1,1.4577259475218658
26,23,b02,86,1,0,667,1,1.4992503748125936
26,23,w94,87,0,1,528,1,1.893939393939394
26,23,w16,88,0,0,600,1,1.6666666666666667
26,23,w94,89,0,0,562,1,1.7793594306049823
26,23,w95,90,0,1,835,1,1.1976047904191616
26,23,b90,91,1,1,633,1,1.5797788309636651
26,23,w98,92,0,0,704,1,1.4204545454545454
26,23,w05,93,0,1,514,1,1.9455252918287937
26,23,b03,94,1,0,552,1,1.8115942028985508
26,23,w90,95,0,1,483,1,2.070393374741201
26,23,w02,96,0,0,550,1,1.8181818181818181
26,23,w91,97,0,1,589,1,1.697792869269949
26,23,b01,98,1,1,455,1,2.197802197802198
26,23,w17,99,0,1,612,1,1.6339869281045751
26,23,w15,100,0,1,546,1,1.8315018315018314
26,23,b91,101,1,0,730,1,1.36986301369863
26,23,w01,102,0,1,613,1,1.6313213703099512
26,23,w98,103,0,1,494,1,2.0242914979757085
26,23,w93,104,0,0,638,1,1.567398119122257
26,23,w06,105,0,0,693,1,1.443001443001443
26,23,b92,106,1,1,515,1,1.941747572815534
26,23,b02,107,1,1,503,1,1.9880715705765408
26,23,b97,108,1,0,634,1,1.5772870662460567
26,23,b07,109,1,1,570,1,1.7543859649122806
26,23,b99,110,1,1,424,1,2.358490566037736
26,23,b96,111,1,0,569,1,1.757469244288225
26,23,b17,112,1,0,600,1,1.6666666666666667
26,23,b17,113,1,1,551,1,1.8148820326678765
26,23,b95,114,1,0,580,1,1.7241379310344827
26,23,b08,115,1,0,612,1,1.6339869281045751
26,23,b14,116,1,1,473,1,2.1141649048625792
26,23,b09,117,1,0,557,1,1.7953321364452424
26,23,b10,118,1,1,574,1,1.7421602787456445
32,20,b17,19,1,1,569,1,1.757469244288225
32,20,b93,20,1,0,606,1,1.6501650165016502
32,20,b98,21,1,0,717,1,1.394700139470014
32,20,b11,22,1,0,646,1,1.5479876160990713
32,20,w01,23,0,0,664,1,1.5060240963855422
32,20,w95,24,0,0,673,1,1.485884101040119
32,20,w17,25,0,0,599,1,1.669449081803005
32,20,w91,26,0,1,694,1,1.440922190201729
32,20,w13,27,0,0,539,1,1.8552875695732838
32,20,w19,28,0,1,502,1,1.9920318725099602
32,20,w17,29,0,1,628,1,1.5923566878980893
32,20,b13,30,1,0,691,1,1.447178002894356
32,20,b10,31,1,0,636,0,1.5723270440251573
32,20,w90,32,0,0,768,1,1.3020833333333333
32,20,b08,33,1,1,645,1,1.550387596899225
32,20,w15,34,0,1,437,1,2.288329519450801
32,20,w98,35,0,1,552,1,1.8115942028985508
32,20,w96,36,0,1,611,1,1.6366612111292962
32,20,b02,37,1,0,474,1,2.109704641350211
32,20,b95,38,1,0,609,1,1.6420361247947455
32,20,w99,39,0,1,476,1,2.100840336134454
32,20,w94,40,0,0,602,1,1.6611295681063123
32,20,b16,41,1,0,648,1,1.5432098765432098
32,20,b94,42,1,0,582,1,1.7182130584192439
32,20,w16,43,0,0,630,1,1.5873015873015872
32,20,b04,44,1,1,522,1,1.9157088122605364
32,20,w07,45,0,1,580,1,1.7241379310344827
32,20,w11,46,0,0,583,1,1.7152658662092624
32,20,w92,47,0,0,669,1,1.4947683109118086
32,20,b05,48,1,1,630,1,1.5873015873015872
32,20,b11,49,1,1,587,1,1.7035775127768313
32,20,b93,50,1,1,654,1,1.529051987767584
32,20,w08,51,0,0,595,1,1.680672268907563
32,20,b03,52,1,1,477,1,2.0964360587002098
32,20,w95,53,0,1,695,1,1.4388489208633093
32,20,b96,54,1,1,514,1,1.9455252918287937
32,20,b01,55,1,0,558,1,1.7921146953405018
32,20,b16,56,1,1,519,1,1.9267822736030829
32,20,w91,57,0,0,566,1,1.7667844522968197
32,20,w94,59,0,1,529,1,1.890359168241966
32,20,w16,60,0,1,576,1,1.7361111111111112
32,20,w04,61,0,0,503,1,1.9880715705765408
32,20,b12,62,1,1,432,1,2.314814814814815
32,20,w05,63,0,0,597,1,1.6750418760469012
32,20,w97,64,0,0,515,1,1.941747572815534
32,20,w14,65,0,1,440,1,2.272727272727273
32,20,b12,66,1,0,649,1,1.5408320493066257
32,20,b07,67,1,1,475,1,2.1052631578947367
32,20,b03,68,1,0,548,1,1.8248175182481752
32,20,w03,69,0,0,548,1,1.8248175182481752
32,20,b98,70,1,1,452,1,2.2123893805309733
32,20,w04,71,0,1,554,0,1.8050541516245486
32,20,w05,72,0,1,411,1,2.4330900243309004
32,20,w97,73,0,1,482,1,2.074688796680498
32,20,w19,74,0,0,624,1,1.6025641025641026
32,20,b92,75,1,0,593,1,1.6863406408094435
32,20,w03,76,0,1,607,1,1.6474464579901154
32,20,b07,77,1,0,684,1,1.4619883040935673
32,20,b04,78,1,0,625,1,1.6
32,20,b02,79,1,1,553,1,1.8083182640144666
32,20,b94,80,1,1,578,1,1.7301038062283738
32,20,w98,81,0,0,587,1,1.7035775127768313
32,20,b14,82,1,0,542,1,1.845018450184502
32,20,b09,83,1,0,494,1,2.0242914979757085
32,20,b90,84,1,0,526,1,1.9011406844106464
32,20,w01,85,0,1,565,1,1.7699115044247788
32,20,w90,86,0,1,434,1,2.304147465437788
32,20,b97,87,1,1,433,1,2.3094688221709005
32,20,w06,88,0,0,583,1,1.7152658662092624
32,20,b92,89,1,1,530,1,1.8867924528301887
32,20,w15,90,0,0,491,1,2.0366598778004072
32,20,b05,91,1,0,806,1,1.2406947890818858
32,20,w93,92,0,0,523,1,1.9120458891013383
32,20,w11,93,0,1,592,1,1.6891891891891893
32,20,b90,94,1,1,588,1,1.7006802721088434
32,20,w14,95,0,0,498,1,2.0080321285140563
32,20,b96,96,1,0,503,1,1.9880715705765408
32,20,w02,97,0,0,471,1,2.1231422505307855
32,20,b09,98,1,1,594,1,1.6835016835016836
32,20,w93,99,0,1,410,1,2.4390243902439024
32,20,w06,100,0,1,484,1,2.0661157024793386
32,20,b01,101,1,1,458,1,2.183406113537118
32,20,w08,102,0,1,447,1,2.237136465324385
32,20,w92,103,0,1,631,1,1.5847860538827259
32,20,b13,104,1,1,459,1,2.178649237472767
32,20,w13,105,0,1,544,1,1.838235294117647
32,20,b10,106,1,1,847,1,1.1806375442739079
32,20,w02,107,0,1,413,1,2.4213075060532687
32,20,w07,108,0,0,567,1,1.763668430335097
32,20,w96,109,0,0,668,1,1.4970059880239521
32,20,b08,110,1,0,647,1,1.545595054095827
32,20,w99,111,0,0,525,1,1.9047619047619047
32,20,b95,112,1,1,590,1,1.694915254237288
32,20,b91,113,1,0,585,1,1.7094017094017093
32,20,b17,114,1,0,530,1,1.8867924528301887
32,20,b14,115,1,1,520,1,1.9230769230769231
32,20,b99,116,1,1,438,1,2.2831050228310503
32,20,b99,117,1,0,513,1,1.949317738791423
32,20,b91,118,1,1,440,1,2.272727272727273
15,28,b93,19,1,1,468,1,2.1367521367521367
15,28,w97,20,0,1,481,1,2.079002079002079
15,28,w15,21,0,1,389,1,2.570694087403599
15,28,b16,22,1,1,468,1,2.1367521367521367
15,28,w13,23,0,1,536,1,1.8656716417910448
15,28,w06,24,0,1,570,1,1.7543859649122806
15,28,w14,25,0,0,578,1,1.7301038062283738
15,28,b17,26,1,1,561,1,1.7825311942959001
15,28,w91,27,0,1,644,1,1.5527950310559007
15,28,b11,28,1,0,711,1,1.4064697609001406
15,28,b93,29,1,0,636,1,1.5723270440251573
15,28,b99,30,1,1,427,1,2.34192037470726
15,28,b95,31,1,1,658,1,1.5197568389057752
15,28,w13,32,0,0,534,1,1.8726591760299625
15,28,w16,33,0,1,576,1,1.7361111111111112
15,28,w95,34,0,0,566,1,1.7667844522968197
15,28,b14,35,1,1,452,1,2.2123893805309733
15,28,b01,36,1,0,544,1,1.838235294117647
15,28,w90,37,0,1,403,1,2.4813895781637716
15,28,b91,38,1,1,422,1,2.3696682464454977
15,28,b16,39,1,0,570,1,1.7543859649122806
15,28,b10,40,1,1,528,1,1.893939393939394
15,28,w07,41,0,1,551,1,1.8148820326678765
15,28,w94,42,0,1,437,1,2.288329519450801
15,28,w19,43,0,0,619,1,1.615508885298869
15,28,b02,44,1,0,585,1,1.7094017094017093
15,28,w99,45,0,0,500,1,2.0
15,28,b95,46,1,0,541,1,1.8484288354898337
15,28,w15,47,0,0,682,1,1.466275659824047
15,28,b98,48,1,1,565,1,1.7699115044247788
15,28,w14,49,0,1,442,1,2.262443438914027
15,28,b01,50,1,1,584,0,1.7123287671232876
15,28,w01,51,0,0,685,1,1.4598540145985401
15,28,w01,52,0,1,592,1,1.6891891891891893
15,28,b96,53,1,0,731,1,1.3679890560875514
15,28,b05,54,1,0,666,1,1.5015015015015014
15,28,b12,55,1,0,826,1,1.2106537530266344
15,28,b14,56,1,0,643,1,1.5552099533437014
15,28,b11,57,1,1,521,1,1.9193857965451055
15,28,b17,58,1,0,614,1,1.6286644951140066
15,28,b98,59,1,0,662,1,1.5105740181268883
15,28,b97,60,1,0,745,1,1.342281879194631
15,28,w03,61,0,1,559,1,1.7889087656529516
15,28,w04,62,0,0,509,1,1.9646365422396856
15,28,b09,63,1,1,692,1,1.4450867052023122
15,28,w06,64,0,0,566,0,1.7667844522968197
15,28,w17,65,0,1,682,1,1.466275659824047
15,28,w93,66,0,0,576,1,1.7361111111111112
15,28,b07,67,1,0,765,1,1.3071895424836601
15,28,b02,68,1,1,697,1,1.4347202295552368
15,28,w05,69,0,1,500,1,2.0
15,28,b90,70,1,0,494,1,2.0242914979757085
15,28,w92,71,0,0,489,1,2.044989775051125
15,28,w93,72,0,1,474,1,2.109704641350211
15,28,b99,73,1,0,553,1,1.8083182640144666
15,28,b13,74,1,0,569,1,1.757469244288225
15,28,b12,75,1,1,512,1,1.953125
15,28,w97,76,0,0,568,1,1.7605633802816902
15,28,b08,77,1,1,533,1,1.876172607879925
15,28,w96,78,0,1,660,1,1.5151515151515151
15,28,b94,79,1,0,641,1,1.5600624024960998
15,28,w91,80,0,0,548,1,1.8248175182481752
15,28,w94,81,0,0,581,1,1.721170395869191
15,28,b94,82,1,1,530,1,1.8867924528301887
15,28,b08,83,1,0,593,1,1.6863406408094435
15,28,b92,84,1,0,624,1,1.6025641025641026
15,28,b97,85,1,1,491,1,2.0366598778004072
15,28,w05,86,0,0,617,1,1.6207455429497568
15,28,b03,87,1,1,462,1,2.1645021645021645
15,28,b92,88,1,1,605,1,1.6528925619834711
15,28,w19,89,0,1,464,1,2.1551724137931036
15,28,b04,90,1,1,624,1,1.6025641025641026
15,28,b96,91,1,1,450,1,2.2222222222222223
15,28,b07,92,1,1,402,1,2.487562189054726
15,28,b04,93,1,0,692,1,1.4450867052023122
15,28,b90,94,1,1,668,1,1.4970059880239521
15,28,w08,95,0,1,575,1,1.7391304347826086
15,28,w98,96,0,0,570,1,1.7543859649122806
15,28,w90,97,0,0,644,1,1.5527950310559007
15,28,b05,98,1,1,554,1,1.8050541516245486
15,28,w95,99,0,1,469,0,2.1321961620469083
15,28,w03,100,0,0,744,1,1.3440860215053763
15,28,b13,101,1,1,523,1,1.9120458891013383
15,28,b03,102,1,0,575,1,1.7391304347826086
15,28,w07,103,0,0,571,1,1.7513134851138354
15,28,b10,104,1,0,752,1,1.3297872340425532
15,28,b09,105,1,0,543,1,1.8416206261510129
15,28,w17,107,0,0,602,1,1.6611295681063123
15,28,w98,108,0,1,505,1,1.9801980198019802
15,28,w11,109,0,0,493,1,2.028397565922921
15,28,w08,110,0,0,582,1,1.7182130584192439
15,28,w11,111,0,1,588,1,1.7006802721088434
15,28,w16,112,0,0,532,1,1.8796992481203008
15,28,w02,113,0,1,524,1,1.9083969465648856
15,28,w04,114,0,1,485,1,2.0618556701030926
15,28,w96,115,0,0,553,1,1.8083182640144666
15,28,w92,116,0,1,524,1,1.9083969465648856
15,28,w99,117,0,1,487,1,2.0533880903490758
15,28,w02,118,0,0,498,1,2.0080321285140563
36,18,b10,19,1,0,732,1,1.366120218579235
36,18,w93,20,0,0,690,1,1.4492753623188406
36,18,b02,21,1,1,525,1,1.9047619047619047
36,18,w19,22,0,1,589,1,1.697792869269949
36,18,b92,23,1,1,623,0,1.6051364365971108
36,18,w04,25,0,1,565,1,1.7699115044247788
36,18,b01,26,1,1,566,1,1.7667844522968197
36,18,w97,27,0,0,649,1,1.5408320493066257
36,18,b14,28,1,1,532,1,1.8796992481203008
36,18,w16,29,0,0,659,1,1.5174506828528074
36,18,b17,30,1,0,733,1,1.364256480218281
36,18,b11,31,1,0,569,1,1.757469244288225
36,18,b96,32,1,0,454,1,2.202643171806167
36,18,b08,33,1,1,512,1,1.953125
36,18,b95,34,1,1,485,1,2.0618556701030926
36,18,b09,35,1,1,620,1,1.6129032258064515
36,18,b96,36,1,1,565,1,1.7699115044247788
36,18,b91,37,1,1,730,1,1.36986301369863
36,18,w92,38,0,0,708,1,1.4124293785310735
36,18,w15,39,0,0,626,1,1.597444089456869
36,18,w91,40,0,1,690,1,1.4492753623188406
36,18,w07,41,0,0,656,1,1.524390243902439
36,18,w04,42,0,0,632,1,1.5822784810126582
36,18,b90,43,1,0,621,1,1.6103059581320451
36,18,w01,44,0,0,618,1,1.6181229773462784
36,18,b13,45,1,1,659,1,1.5174506828528074
36,18,w17,46,0,1,637,1,1.5698587127158556
36,18,w06,47,0,1,621,1,1.6103059581320451
36,18,b91,48,1,0,702,1,1.4245014245014245
36,18,b92,49,1,0,658,1,1.5197568389057752
36,18,b03,50,1,1,530,1,1.8867924528301887
36,18,w95,51,0,1,645,1,1.550387596899225
36,18,w05,53,0,1,495,1,2.0202020202020203
36,18,b02,54,1,0,594,1,1.6835016835016836
36,18,w99,55,0,1,624,1,1.6025641025641026
36,18,w03,56,0,1,609,1,1.6420361247947455
36,18,w93,57,0,1,487,1,2.0533880903490758
36,18,b93,58,1,0,597,1,1.6750418760469012
36,18,w90,59,0,1,661,1,1.51285930408472
36,18,b01,60,1,0,520,1,1.9230769230769231
36,18,w98,61,0,1,470,1,2.127659574468085
36,18,w15,62,0,1,465,1,2.150537634408602
36,18,b97,63,1,1,458,1,2.183406113537118
36,18,b13,64,1,0,695,1,1.4388489208633093
36,18,b04,65,1,0,530,1,1.8867924528301887
36,18,b09,66,1,0,535,1,1.8691588785046729
36,18,w11,67,0,1,471,1,2.1231422505307855
36,18,w08,68,0,1,542,1,1.845018450184502
36,18,b16,69,1,0,509,1,1.9646365422396856
36,18,b98,70,1,1,512,1,1.953125
36,18,w11,71,0,0,577,1,1.733102253032929
36,18,w16,72,0,1,615,1,1.6260162601626016
36,18,b07,73,1,1,528,1,1.893939393939394
36,18,b16,74,1,1,505,1,1.9801980198019802
36,18,w97,75,0,1,502,1,1.9920318725099602
36,18,b93,76,1,1,442,1,2.262443438914027
36,18,b97,77,1,0,765,1,1.3071895424836601
36,18,b95,78,1,0,658,1,1.5197568389057752
36,18,b04,79,1,1,509,1,1.9646365422396856
36,18,b99,80,1,0,568,1,1.7605633802816902
36,18,w99,81,0,0,686,1,1.4577259475218658
36,18,w02,82,0,1,611,1,1.6366612111292962
36,18,w02,83,0,0,540,1,1.8518518518518519
36,18,b99,84,1,1,523,1,1.9120458891013383
36,18,w17,85,0,0,631,1,1.5847860538827259
36,18,b98,86,1,0,739,1,1.3531799729364005
36,18,b05,87,1,1,633,1,1.5797788309636651
36,18,w91,88,0,0,564,1,1.7730496453900708
36,18,w94,89,0,1,592,1,1.6891891891891893
36,18,b94,90,1,0,554,1,1.8050541516245486
36,18,w01,91,0,1,619,1,1.615508885298869
36,18,b07,92,1,0,736,1,1.358695652173913
36,18,w06,94,0,0,713,1,1.402524544179523
36,18,b17,95,1,1,631,1,1.5847860538827259
36,18,w13,96,0,0,560,1,1.7857142857142858
36,18,b10,97,1,1,721,1,1.3869625520110958
36,18,b11,98,1,1,641,1,1.5600624024960998
36,18,w14,99,0,0,559,1,1.7889087656529516
36,18,w92,100,0,1,815,1,1.2269938650306749
36,18,w03,101,0,0,542,0,1.845018450184502
36,18,b14,102,1,0,638,1,1.567398119122257
36,18,b94,103,1,1,562,1,1.7793594306049823
36,18,w90,104,0,0,672,1,1.4880952380952381
36,18,w95,106,0,0,548,1,1.8248175182481752
36,18,b12,107,1,1,520,1,1.9230769230769231
36,18,w96,108,0,1,550,1,1.8181818181818181
36,18,w98,109,0,0,593,1,1.6863406408094435
36,18,w08,110,0,0,603,1,1.658374792703151
36,18,w05,111,0,0,623,1,1.6051364365971108
36,18,b90,112,1,1,713,1,1.402524544179523
36,18,w07,113,0,1,606,1,1.6501650165016502
36,18,w13,114,0,1,591,1,1.6920473773265652
36,18,w19,115,0,0,645,1,1.550387596899225
36,18,w14,116,0,1,506,1,1.976284584980237
36,18,b03,117,1,0,548,1,1.8248175182481752
36,18,b05,118,1,0,574,1,1.7421602787456445
22,25,b98,19,1,0,594,1,1.6835016835016836
22,25,w90,20,0,1,525,1,1.9047619047619047
22,25,w94,21,0,1,572,1,1.7482517482517483
22,25,b12,22,1,1,503,1,1.9880715705765408
22,25,w04,23,0,1,663,1,1.5082956259426847
22,25,b03,24,1,1,696,1,1.4367816091954022
22,25,b93,25,1,1,602,1,1.6611295681063123
22,25,w01,26,0,1,600,1,1.6666666666666667
22,25,w98,27,0,0,678,1,1.4749262536873156
22,25,b04,28,1,0,647,1,1.545595054095827
22,25,w06,29,0,0,626,1,1.597444089456869
22,25,b90,30,1,1,550,1,1.8181818181818181
22,25,w02,31,0,1,450,1,2.2222222222222223
22,25,w14,32,0,1,490,1,2.0408163265306123
22,25,b11,33,1,0,586,1,1.7064846416382253
22,25,b09,34,1,0,658,1,1.5197568389057752
22,25,w07,35,0,0,602,1,1.6611295681063123
22,25,b91,36,1,1,578,1,1.7301038062283738
22,25,b92,37,1,1,704,1,1.4204545454545454
22,25,b07,38,1,0,756,1,1.3227513227513228
22,25,b94,39,1,1,512,1,1.953125
22,25,w03,40,0,0,653,1,1.5313935681470139
22,25,b91,41,1,0,592,1,1.6891891891891893
22,25,b17,42,1,0,649,1,1.5408320493066257
22,25,w01,43,0,0,628,1,1.5923566878980893
22,25,b99,44,1,0,577,1,1.733102253032929
22,25,w15,45,0,0,519,1,1.9267822736030829
22,25,b05,46,1,1,573,1,1.7452006980802792
22,25,w02,48,0,0,553,1,1.8083182640144666
22,25,w11,49,0,0,639,1,1.5649452269170578
22,25,b95,50,1,1,505,1,1.9801980198019802
22,25,w11,51,0,1,520,1,1.9230769230769231
22,25,b17,52,1,1,668,1,1.4970059880239521
22,25,b96,53,1,1,553,1,1.8083182640144666
22,25,w90,54,0,0,691,1,1.447178002894356
22,25,w19,55,0,1,568,1,1.7605633802816902
22,25,w08,56,0,1,742,1,1.3477088948787062
22,25,w91,57,0,1,721,1,1.3869625520110958
22,25,b97,58,1,1,588,1,1.7006802721088434
22,25,b95,59,1,0,631,1,1.5847860538827259
22,25,b12,60,1,0,755,1,1.3245033112582782
22,25,b16,61,1,1,551,1,1.8148820326678765
22,25,w07,62,0,1,537,1,1.86219739292365
22,25,b96,63,1,0,523,1,1.9120458891013383
22,25,w03,64,0,1,565,1,1.7699115044247788
22,25,w04,65,0,0,598,1,1.6722408026755853
22,25,w17,67,0,0,621,1,1.6103059581320451
22,25,b13,68,1,1,433,1,2.3094688221709005
22,25,b93,69,1,0,600,1,1.6666666666666667
22,25,b02,70,1,1,543,1,1.8416206261510129
22,25,b05,71,1,0,583,1,1.7152658662092624
22,25,b92,72,1,0,681,1,1.4684287812041117
22,25,w97,73,0,0,714,1,1.4005602240896358
22,25,b14,74,1,1,571,1,1.7513134851138354
22,25,b01,75,1,0,494,1,2.0242914979757085
22,25,b03,76,1,0,616,1,1.6233766233766234
22,25,b90,77,1,0,521,1,1.9193857965451055
22,25,b10,78,1,1,722,1,1.3850415512465375
22,25,w93,79,0,0,572,1,1.7482517482517483
22,25,b07,80,1,1,550,1,1.8181818181818181
22,25,w17,81,0,1,765,1,1.3071895424836601
22,25,w97,82,0,1,651,1,1.5360983102918586
22,25,b97,83,1,0,608,1,1.644736842105263
22,25,b04,84,1,1,604,1,1.6556291390728477
22,25,w05,85,0,1,479,1,2.0876826722338206
22,25,w08,86,0,0,738,1,1.3550135501355014
22,25,w13,87,0,0,632,1,1.5822784810126582
22,25,w95,88,0,1,717,1,1.394700139470014
22,25,b11,89,1,1,584,1,1.7123287671232876
22,25,w19,90,0,0,627,1,1.594896331738437
22,25,w06,91,0,1,709,1,1.4104372355430184
22,25,w93,92,0,1,612,1,1.6339869281045751
22,25,b02,93,1,0,551,1,1.8148820326678765
22,25,b01,94,1,1,544,1,1.838235294117647
22,25,w16,95,0,0,590,1,1.694915254237288
22,25,b09,96,1,1,674,1,1.4836795252225519
22,25,w95,97,0,0,536,1,1.8656716417910448
22,25,b94,98,1,0,686,1,1.4577259475218658
22,25,w96,99,0,1,610,1,1.639344262295082
22,25,b08,100,1,0,683,1,1.4641288433382138
22,25,b98,101,1,1,530,1,1.8867924528301887
22,25,b10,102,1,0,715,1,1.3986013986013985
22,25,w92,103,0,0,627,1,1.594896331738437
22,25,b08,104,1,1,539,1,1.8552875695732838
22,25,b14,105,1,0,659,1,1.5174506828528074
22,25,w05,107,0,0,560,1,1.7857142857142858
22,25,b16,108,1,0,545,1,1.834862385321101
22,25,b99,109,1,1,399,1,2.506265664160401
22,25,w99,110,0,1,696,1,1.4367816091954022
22,25,w14,111,0,0,578,1,1.7301038062283738
22,25,w16,112,0,1,622,1,1.607717041800643
22,25,w91,113,0,0,483,1,2.070393374741201
22,25,w15,114,0,1,501,1,1.996007984031936
22,25,w99,115,0,0,611,1,1.6366612111292962
22,25,w13,116,0,1,584,1,1.7123287671232876
22,25,w98,117,0,1,617,1,1.6207455429497568
22,25,w94,118,0,0,528,1,1.893939393939394
29,21,w11,19,0,1,425,1,2.3529411764705883
29,21,w06,20,0,1,492,1,2.032520325203252
29,21,w06,21,0,0,812,1,1.2315270935960592
29,21,w93,22,0,0,584,1,1.7123287671232876
29,21,b03,23,1,0,584,1,1.7123287671232876
29,21,b16,24,1,1,533,1,1.876172607879925
29,21,w17,25,0,1,621,1,1.6103059581320451
29,21,b99,26,1,0,657,1,1.5220700152207
29,21,w99,27,0,1,470,1,2.127659574468085
29,21,b90,28,1,0,604,1,1.6556291390728477
29,21,w94,29,0,1,449,1,2.2271714922048997
29,21,w13,30,0,0,563,1,1.7761989342806395
29,21,b01,31,1,0,543,1,1.8416206261510129
29,21,w19,32,0,0,683,1,1.4641288433382138
29,21,w01,33,0,0,561,1,1.7825311942959001
29,21,w04,34,0,0,453,1,2.207505518763797
29,21,b03,35,1,1,450,1,2.2222222222222223
29,21,b09,36,1,1,637,1,1.5698587127158556
29,21,w14,37,0,0,626,1,1.597444089456869
29,21,w17,38,0,0,556,1,1.7985611510791366
29,21,w02,39,0,0,498,1,2.0080321285140563
29,21,b96,40,1,1,428,1,2.336448598130841
29,21,b08,41,1,0,641,1,1.5600624024960998
29,21,b97,42,1,1,623,1,1.6051364365971108
29,21,b10,43,1,0,790,1,1.2658227848101267
29,21,b05,44,1,1,370,1,2.7027027027027026
29,21,b94,45,1,1,470,1,2.127659574468085
29,21,w97,46,0,0,531,1,1.8832391713747645
29,21,b91,47,1,0,638,1,1.567398119122257
29,21,b93,48,1,0,627,1,1.594896331738437
29,21,b02,49,1,1,544,1,1.838235294117647
29,21,w07,50,0,1,841,0,1.1890606420927468
29,21,w02,51,0,1,434,1,2.304147465437788
29,21,b04,52,1,0,797,1,1.2547051442910917
29,21,b11,53,1,0,544,1,1.838235294117647
29,21,w08,54,0,1,541,1,1.8484288354898337
29,21,b01,55,1,1,608,1,1.644736842105263
29,21,w98,56,0,0,575,1,1.7391304347826086
29,21,b07,57,1,1,460,1,2.1739130434782608
29,21,w16,58,0,1,737,1,1.3568521031207599
29,21,w15,59,0,0,528,1,1.893939393939394
29,21,b12,60,1,0,846,1,1.1820330969267139
29,21,w14,61,0,1,584,1,1.7123287671232876
29,21,b99,62,1,1,367,1,2.7247956403269753
29,21,w91,63,0,1,558,1,1.7921146953405018
29,21,w98,64,0,1,435,1,2.2988505747126435
29,21,w91,65,0,0,532,1,1.8796992481203008
29,21,w08,66,0,0,720,1,1.3888888888888888
29,21,w90,67,0,0,687,1,1.455604075691412
29,21,b94,68,1,0,642,1,1.557632398753894
29,21,w94,69,0,0,598,1,1.6722408026755853
29,21,w96,70,0,1,523,1,1.9120458891013383
29,21,w05,71,0,0,570,0,1.7543859649122806
29,21,w05,72,0,1,581,1,1.721170395869191
29,21,b13,73,1,1,496,1,2.0161290322580645
29,21,b98,74,1,1,550,1,1.8181818181818181
29,21,b92,75,1,0,652,1,1.5337423312883436
29,21,w92,76,0,1,775,1,1.2903225806451613
29,21,b14,77,1,1,510,1,1.9607843137254901
29,21,w99,78,0,0,618,1,1.6181229773462784
29,21,b95,79,1,1,535,1,1.8691588785046729
29,21,w90,80,0,1,535,1,1.8691588785046729
29,21,w07,81,0,0,591,1,1.6920473773265652
29,21,w13,82,0,1,620,1,1.6129032258064515
29,21,b09,83,1,0,733,1,1.364256480218281
29,21,b96,84,1,0,598,1,1.6722408026755853
29,21,b16,85,1,0,667,1,1.4992503748125936
29,21,b97,86,1,0,682,1,1.466275659824047
29,21,b12,87,1,1,612,1,1.6339869281045751
29,21,b93,88,1,1,482,1,2.074688796680498
29,21,w93,89,0,1,652,1,1.5337423312883436
29,21,b17,90,1,0,681,1,1.4684287812041117
29,21,b10,91,1,1,731,1,1.3679890560875514
29,21,w96,92,0,0,734,1,1.3623978201634876
29,21,w97,93,0,1,593,1,1.6863406408094435
29,21,b91,94,1,1,517,1,1.9342359767891684
29,21,w16,95,0,0,624,1,1.6025641025641026
29,21,w95,96,0,0,495,1,2.0202020202020203
29,21,w19,97,0,1,495,1,2.0202020202020203
29,21,b05,98,1,0,717,1,1.394700139470014
29,21,w01,99,0,1,507,1,1.9723865877712032
29,21,w03,101,0,1,513,1,1.949317738791423
29,21,b92,102,1,1,688,1,1.4534883720930232
29,21,w92,103,0,0,574,1,1.7421602787456445
29,21,b04,104,1,1,548,1,1.8248175182481752
29,21,w95,105,0,1,763,1,1.3106159895150722
29,21,w04,106,0,1,509,1,1.9646365422396856
29,21,w03,107,0,0,693,1,1.443001443001443
29,21,b17,108,1,1,653,1,1.5313935681470139
29,21,w15,109,0,1,461,1,2.1691973969631237
29,21,b02,110,1,0,567,1,1.763668430335097
29,21,w11,111,0,0,610,1,1.639344262295082
29,21,b11,112,1,1,620,1,1.6129032258064515
29,21,b14,113,1,0,716,1,1.3966480446927374
29,21,b90,114,1,1,599,1,1.669449081803005
29,21,b08,116,1,1,421,1,2.375296912114014
29,21,b07,117,1,0,696,1,1.4367816091954022
29,21,b95,118,1,0,604,1,1.6556291390728477
25,23,w14,19,0,0,523,1,1.9120458891013383
25,23,w95,20,0,1,592,1,1.6891891891891893
25,23,w93,21,0,1,461,1,2.1691973969631237
25,23,w91,22,0,1,616,1,1.6233766233766234
25,23,w92,23,0,0,595,0,1.680672268907563
25,23,w05,25,0,0,825,1,1.2121212121212122
25,23,w16,26,0,1,543,1,1.8416206261510129
25,23,w01,27,0,0,642,1,1.557632398753894
25,23,w08,28,0,0,639,1,1.5649452269170578
25,23,w96,29,0,1,448,1,2.232142857142857
25,23,b96,30,1,0,448,1,2.232142857142857
25,23,w98,31,0,0,675,1,1.4814814814814814
25,23,w05,32,0,1,525,1,1.9047619047619047
25,23,b95,33,1,1,699,1,1.4306151645207439
25,23,b12,34,1,1,499,1,2.004008016032064
25,23,b01,35,1,1,496,1,2.0161290322580645
25,23,w99,36,0,0,579,1,1.7271157167530224
25,23,w95,37,0,0,555,1,1.8018018018018018
25,23,b16,38,1,0,672,1,1.4880952380952381
25,23,w90,39,0,0,628,1,1.5923566878980893
25,23,w07,40,0,0,507,1,1.9723865877712032
25,23,b99,41,1,1,448,1,2.232142857142857
25,23,b02,42,1,1,580,1,1.7241379310344827
25,23,w13,43,0,1,738,1,1.3550135501355014
25,23,b97,44,1,1,573,1,1.7452006980802792
25,23,w11,45,0,0,553,1,1.8083182640144666
25,23,w15,46,0,1,462,1,2.1645021645021645
25,23,b98,47,1,0,688,1,1.4534883720930232
25,23,w08,48,0,1,521,1,1.9193857965451055
25,23,w97,49,0,0,577,1,1.733102253032929
25,23,w02,50,0,1,583,1,1.7152658662092624
25,23,w04,51,0,0,553,1,1.8083182640144666
25,23,w14,52,0,1,449,1,2.2271714922048997
25,23,b94,53,1,1,496,1,2.0161290322580645
25,23,w06,54,0,0,564,1,1.7730496453900708
25,23,b92,55,1,1,573,1,1.7452006980802792
25,23,b01,56,1,0,650,1,1.5384615384615385
25,23,b14,57,1,0,613,1,1.6313213703099512
25,23,w94,58,0,0,601,1,1.663893510815308
25,23,w91,59,0,0,570,1,1.7543859649122806
25,23,w06,60,0,1,584,1,1.7123287671232876
25,23,b90,61,1,0,580,1,1.7241379310344827
25,23,b09,62,1,0,570,1,1.7543859649122806
25,23,w19,63,0,1,390,1,2.5641025641025643
25,23,w16,64,0,0,608,1,1.644736842105263
25,23,w13,65,0,0,536,1,1.8656716417910448
25,23,w15,66,0,0,561,1,1.7825311942959001
25,23,b04,67,1,1,537,1,1.86219739292365
25,23,w11,68,0,1,506,1,1.976284584980237
25,23,w01,69,0,1,580,1,1.7241379310344827
25,23,b03,70,1,0,630,1,1.5873015873015872
25,23,w92,72,0,1,740,1,1.3513513513513513
25,23,w97,73,0,1,504,1,1.9841269841269842
25,23,b02,74,1,0,597,1,1.6750418760469012
25,23,b96,76,1,1,573,1,1.7452006980802792
25,23,w98,77,0,1,424,1,2.358490566037736
25,23,w02,78,0,0,466,1,2.1459227467811157
25,23,b04,79,1,0,630,1,1.5873015873015872
25,23,w07,80,0,1,563,1,1.7761989342806395
25,23,w03,81,0,0,660,1,1.5151515151515151
25,23,w90,82,0,1,476,1,2.100840336134454
25,23,b11,83,1,1,611,1,1.6366612111292962
25,23,w04,84,0,1,570,1,1.7543859649122806
25,23,b12,85,1,0,646,0,1.5479876160990713
25,23,b99,86,1,0,628,1,1.5923566878980893
25,23,w17,87,0,0,661,1,1.51285930408472
25,23,b97,88,1,0,695,1,1.4388489208633093
25,23,b90,89,1,1,633,1,1.5797788309636651
25,23,b08,90,1,0,688,1,1.4534883720930232
25,23,w17,91,0,1,640,1,1.5625
25,23,b17,92,1,1,602,1,1.6611295681063123
25,23,b16,93,1,1,551,1,1.8148820326678765
25,23,w93,94,0,0,516,1,1.937984496124031
25,23,b13,95,1,1,494,1,2.0242914979757085
25,23,w03,96,0,1,415,1,2.4096385542168677
25,23,b10,97,1,1,551,1,1.8148820326678765
25,23,b08,98,1,1,539,1,1.8552875695732838
25,23,w99,99,0,1,535,1,1.8691588785046729
25,23,w19,100,0,0,763,1,1.3106159895150722
25,23,b93,101,1,0,516,1,1.937984496124031
25,23,b94,102,1,0,599,1,1.669449081803005
25,23,b09,103,1,1,638,1,1.567398119122257
25,23,b07,104,1,1,659,1,1.5174506828528074
25,23,w94,105,0,1,489,1,2.044989775051125
25,23,b14,106,1,1,496,1,2.0161290322580645
25,23,b98,107,1,1,531,1,1.8832391713747645
25,23,b92,108,1,0,531,1,1.8832391713747645
25,23,b91,109,1,0,557,1,1.7953321364452424
25,23,b13,110,1,0,667,1,1.4992503748125936
25,23,b91,111,1,1,470,1,2.127659574468085
25,23,b11,112,1,0,687,1,1.455604075691412
25,23,b03,113,1,1,488,1,2.0491803278688523
25,23,b17,114,1,0,641,1,1.5600624024960998
25,23,b93,115,1,1,553,1,1.8083182640144666
25,23,b95,116,1,0,563,1,1.7761989342806395
25,23,b07,117,1,0,727,1,1.375515818431912
25,23,b05,118,1,1,557,1,1.7953321364452424
17,27,w91,19,0,1,591,0,1.6920473773265652
17,27,b90,20,1,1,640,1,1.5625
17,27,w11,21,0,1,580,1,1.7241379310344827
17,27,b91,22,1,0,622,1,1.607717041800643
17,27,w07,23,0,0,714,1,1.4005602240896358
17,27,b03,24,1,1,491,1,2.0366598778004072
17,27,b98,25,1,1,511,1,1.9569471624266144
17,27,b12,26,1,1,510,1,1.9607843137254901
17,27,w14,27,0,1,473,1,2.1141649048625792
17,27,b93,28,1,0,611,1,1.6366612111292962
17,27,b02,29,1,0,612,1,1.6339869281045751
17,27,b95,30,1,1,579,1,1.7271157167530224
17,27,b02,32,1,1,615,1,1.6260162601626016
17,27,w94,33,0,0,609,1,1.6420361247947455
17,27,b16,34,1,1,596,1,1.6778523489932886
17,27,w95,35,0,0,572,1,1.7482517482517483
17,27,b10,36,1,1,610,1,1.639344262295082
17,27,w15,37,0,0,581,1,1.721170395869191
17,27,w98,38,0,1,554,1,1.8050541516245486
17,27,b14,39,1,0,717,1,1.394700139470014
17,27,b11,40,1,1,750,1,1.3333333333333333
17,27,w05,41,0,0,784,1,1.2755102040816326
17,27,b01,42,1,1,529,1,1.890359168241966
17,27,b99,43,1,0,654,1,1.529051987767584
17,27,b90,44,1,0,830,1,1.2048192771084338
17,27,b10,45,1,0,829,1,1.2062726176115801
17,27,w19,46,0,1,566,1,1.7667844522968197
17,27,w15,47,0,1,535,1,1.8691588785046729
17,27,b04,48,1,1,756,1,1.3227513227513228
17,27,w98,49,0,0,624,1,1.6025641025641026
17,27,w11,50,0,0,684,1,1.4619883040935673
17,27,b92,51,1,0,825,1,1.2121212121212122
17,27,w91,52,0,0,598,1,1.6722408026755853
17,27,b17,54,1,1,621,1,1.6103059581320451
17,27,b97,55,1,1,641,1,1.5600624024960998
17,27,b07,56,1,1,506,1,1.976284584980237
17,27,b03,57,1,0,701,1,1.4265335235378032
17,27,w13,58,0,1,747,1,1.3386880856760375
17,27,w94,59,0,1,544,1,1.838235294117647
17,27,w19,60,0,0,618,1,1.6181229773462784
17,27,b08,61,1,0,682,1,1.466275659824047
17,27,b94,62,1,0,754,1,1.3262599469496021
17,27,w02,63,0,0,604,1,1.6556291390728477
17,27,b92,64,1,1,583,1,1.7152658662092624
17,27,w99,65,0,1,584,1,1.7123287671232876
17,27,w16,66,0,0,540,1,1.8518518518518519
17,27,b93,67,1,1,579,1,1.7271157167530224
17,27,b05,68,1,0,593,1,1.6863406408094435
17,27,b13,69,1,1,546,1,1.8315018315018314
17,27,w07,70,0,1,569,1,1.757469244288225
17,27,w17,71,0,0,613,1,1.6313213703099512
17,27,b96,72,1,0,645,1,1.550387596899225
17,27,b04,73,1,0,749,1,1.335113484646195
17,27,b98,74,1,0,745,1,1.342281879194631
17,27,b16,75,1,0,685,1,1.4598540145985401
17,27,w06,76,0,0,624,1,1.6025641025641026
17,27,b09,77,1,0,569,1,1.757469244288225
17,27,w08,78,0,1,724,1,1.3812154696132597
17,27,b99,79,1,1,560,1,1.7857142857142858
17,27,b12,80,1,0,753,1,1.3280212483399734
17,27,b07,81,1,0,806,1,1.2406947890818858
17,27,w96,82,0,1,793,1,1.2610340479192939
17,27,w05,83,0,1,595,1,1.680672268907563
17,27,b17,84,1,0,676,1,1.4792899408284024
17,27,b09,85,1,1,840,1,1.1904761904761905
17,27,b94,86,1,1,592,1,1.6891891891891893
17,27,b01,87,1,0,629,1,1.589825119236884
17,27,w04,88,0,0,647,1,1.545595054095827
17,27,b08,89,1,1,571,1,1.7513134851138354
17,27,b96,90,1,1,563,1,1.7761989342806395
17,27,w01,91,0,0,764,1,1.3089005235602094
17,27,w16,93,0,1,552,1,1.8115942028985508
17,27,b14,94,1,1,582,1,1.7182130584192439
17,27,b13,95,1,0,718,1,1.392757660167131
17,27,b11,96,1,0,671,1,1.4903129657228018
17,27,b91,97,1,1,542,1,1.845018450184502
17,27,b05,98,1,1,626,1,1.597444089456869
17,27,w95,99,0,1,685,1,1.4598540145985401
17,27,w03,100,0,0,727,1,1.375515818431912
17,27,w04,101,0,1,558,1,1.7921146953405018
17,27,w08,102,0,0,664,1,1.5060240963855422
17,27,w97,104,0,1,587,1,1.7035775127768313
17,27,w97,105,0,0,627,1,1.594896331738437
17,27,w13,106,0,0,571,1,1.7513134851138354
17,27,w02,107,0,1,779,1,1.2836970474967908
17,27,w03,108,0,1,629,1,1.589825119236884
17,27,w93,109,0,1,573,1,1.7452006980802792
17,27,w93,111,0,0,572,0,1.7482517482517483
17,27,w06,112,0,1,569,1,1.757469244288225
17,27,w90,113,0,1,625,1,1.6
17,27,w14,114,0,0,672,1,1.4880952380952381
17,27,w92,115,0,0,569,1,1.757469244288225
17,27,w99,116,0,0,526,1,1.9011406844106464
17,27,w90,117,0,0,570,1,1.7543859649122806
17,27,w01,118,0,1,600,1,1.6666666666666667
13,29,b04,19,1,0,600,1,1.6666666666666667
13,29,w05,20,0,0,656,1,1.524390243902439
13,29,w04,21,0,0,555,1,1.8018018018018018
13,29,b05,22,1,0,617,1,1.6207455429497568
13,29,w19,23,0,1,539,1,1.8552875695732838
13,29,w19,24,0,0,766,1,1.3054830287206267
13,29,w15,25,0,0,594,1,1.6835016835016836
13,29,b91,26,1,1,510,1,1.9607843137254901
13,29,b11,27,1,1,677,1,1.4771048744460857
13,29,b98,28,1,0,579,1,1.7271157167530224
13,29,w11,29,0,1,588,1,1.7006802721088434
13,29,w14,30,0,0,664,1,1.5060240963855422
13,29,w90,31,0,0,667,1,1.4992503748125936
13,29,b08,32,1,0,640,1,1.5625
13,29,b93,33,1,1,542,1,1.845018450184502
13,29,w08,34,0,1,679,1,1.4727540500736378
13,29,w03,35,0,1,619,1,1.615508885298869
13,29,w17,36,0,0,694,1,1.440922190201729
13,29,w95,37,0,1,710,1,1.408450704225352
13,29,w94,38,0,0,724,1,1.3812154696132597
13,29,w98,39,0,1,544,1,1.838235294117647
13,29,w01,41,0,0,649,1,1.5408320493066257
13,29,w97,42,0,1,504,1,1.9841269841269842
13,29,w14,43,0,1,512,1,1.953125
13,29,b09,44,1,0,602,1,1.6611295681063123
13,29,b13,45,1,0,657,1,1.5220700152207
13,29,w13,46,0,1,617,1,1.6207455429497568
13,29,w94,47,0,1,538,1,1.858736059479554
13,29,w16,48,0,0,692,1,1.4450867052023122
13,29,b16,49,1,1,597,1,1.6750418760469012
13,29,w06,50,0,1,722,1,1.3850415512465375
13,29,w91,51,0,0,615,1,1.6260162601626016
13,29,w13,52,0,0,694,1,1.440922190201729
13,29,b12,53,1,0,822,1,1.2165450121654502
13,29,w06,54,0,0,755,1,1.3245033112582782
13,29,b90,55,1,0,668,1,1.4970059880239521
13,29,w16,56,0,1,668,1,1.4970059880239521
13,29,b03,57,1,0,571,1,1.7513134851138354
13,29,w98,58,0,0,734,1,1.3623978201634876
13,29,w97,59,0,0,637,1,1.5698587127158556
13,29,w93,60,0,1,592,1,1.6891891891891893
13,29,w02,61,0,1,835,1,1.1976047904191616
13,29,w99,62,0,0,619,1,1.615508885298869
13,29,b99,63,1,0,594,1,1.6835016835016836
13,29,w96,64,0,1,640,1,1.5625
13,29,w04,65,0,1,549,1,1.8214936247723132
13,29,b98,66,1,1,591,1,1.6920473773265652
13,29,w07,67,0,1,568,1,1.7605633802816902
13,29,w99,68,0,1,759,1,1.3175230566534915
13,29,b05,69,1,1,539,1,1.8552875695732838
13,29,w15,70,0,1,595,1,1.680672268907563
13,29,b94,71,1,0,716,1,1.3966480446927374
13,29,w07,72,0,0,771,1,1.297016861219196
13,29,b95,73,1,1,568,1,1.7605633802816902
13,29,w90,74,0,1,554,1,1.8050541516245486
13,29,b17,75,1,0,630,1,1.5873015873015872
13,29,b01,76,1,1,514,1,1.9455252918287937
13,29,w02,77,0,0,633,1,1.5797788309636651
13,29,b04,79,1,1,632,1,1.5822784810126582
13,29,w95,80,0,0,653,1,1.5313935681470139
13,29,b97,81,1,0,809,1,1.2360939431396787
13,29,w08,82,0,0,768,1,1.3020833333333333
13,29,b14,83,1,1,633,1,1.5797788309636651
13,29,w92,84,0,1,761,1,1.314060446780552
13,29,w92,85,0,0,725,1,1.3793103448275863
13,29,w01,87,0,1,663,1,1.5082956259426847
13,29,w05,88,0,1,543,1,1.8416206261510129
13,29,b97,89,1,1,696,1,1.4367816091954022
13,29,b10,90,1,1,556,1,1.7985611510791366
13,29,b14,91,1,0,728,1,1.3736263736263736
13,29,b93,92,1,0,702,1,1.4245014245014245
13,29,b02,94,1,0,664,1,1.5060240963855422
13,29,b08,95,1,1,611,1,1.6366612111292962
13,29,w93,96,0,0,670,1,1.492537313432836
13,29,w11,97,0,0,617,1,1.6207455429497568
13,29,b92,98,1,1,645,1,1.550387596899225
13,29,b99,99,1,1,588,1,1.7006802721088434
13,29,w17,100,0,1,751,1,1.3315579227696406
13,29,w03,101,0,0,814,1,1.2285012285012284
13,29,b91,102,1,0,637,1,1.5698587127158556
13,29,b96,103,1,1,581,1,1.721170395869191
13,29,b02,104,1,1,567,1,1.763668430335097
13,29,b03,105,1,1,452,1,2.2123893805309733
13,29,b11,106,1,0,554,1,1.8050541516245486
13,29,b92,107,1,0,687,1,1.455604075691412
13,29,b16,108,1,0,651,1,1.5360983102918586
13,29,b17,109,1,1,769,0,1.3003901170351104
13,29,b95,110,1,0,662,1,1.5105740181268883
13,29,b13,112,1,1,670,1,1.492537313432836
13,29,b90,113,1,1,554,1,1.8050541516245486
13,29,b07,114,1,1,584,1,1.7123287671232876
13,29,b01,115,1,0,685,1,1.4598540145985401
13,29,b94,116,1,1,582,1,1.7182130584192439
13,29,b96,117,1,0,757,1,1.321003963011889
13,29,b12,118,1,1,624,1,1.6025641025641026
28,22,b12,19,1,0,594,1,1.6835016835016836
28,22,w16,20,0,0,467,1,2.1413276231263385
28,22,w96,21,0,1,555,0,1.8018018018018018
28,22,w98,22,0,1,463,1,2.159827213822894
28,22,b14,23,1,0,579,1,1.7271157167530224
28,22,w16,24,0,1,585,1,1.7094017094017093
28,22,b07,25,1,1,484,1,2.0661157024793386
28,22,b05,26,1,1,583,1,1.7152658662092624
28,22,w15,27,0,1,432,1,2.314814814814815
28,22,b99,28,1,1,442,1,2.262443438914027
28,22,w97,29,0,0,572,1,1.7482517482517483
28,22,b90,30,1,1,562,1,1.7793594306049823
28,22,w03,31,0,0,687,1,1.455604075691412
28,22,b02,32,1,1,569,1,1.757469244288225
28,22,b97,33,1,0,636,1,1.5723270440251573
28,22,b17,34,1,0,666,1,1.5015015015015014
28,22,w13,35,0,1,498,1,2.0080321285140563
28,22,b08,36,1,0,691,1,1.447178002894356
28,22,w92,37,0,1,705,1,1.4184397163120568
28,22,w07,38,0,1,541,1,1.8484288354898337
28,22,b93,39,1,0,612,1,1.6339869281045751
28,22,b16,40,1,1,516,1,1.937984496124031
28,22,b93,41,1,1,405,1,2.4691358024691357
28,22,w05,42,0,0,710,1,1.408450704225352
28,22,b01,43,1,0,567,1,1.763668430335097
28,22,b10,44,1,1,552,1,1.8115942028985508
28,22,w13,45,0,0,543,1,1.8416206261510129
28,22,b91,46,1,1,489,1,2.044989775051125
28,22,w91,47,0,1,561,1,1.7825311942959001
28,22,b04,48,1,1,543,1,1.8416206261510129
28,22,w01,49,0,0,639,1,1.5649452269170578
28,22,w92,50,0,0,687,1,1.455604075691412
28,22,w08,51,0,0,603,1,1.658374792703151
28,22,w19,52,0,0,665,1,1.5037593984962405
28,22,w91,53,0,0,581,1,1.721170395869191
28,22,b11,54,1,0,567,1,1.763668430335097
28,22,w17,55,0,0,537,1,1.86219739292365
28,22,b08,56,1,1,457,1,2.1881838074398248
28,22,w97,57,0,1,473,1,2.1141649048625792
28,22,b07,58,1,0,609,1,1.6420361247947455
28,22,w03,59,0,1,712,1,1.404494382022472
28,22,b17,60,1,1,607,1,1.6474464579901154
28,22,b09,61,1,0,585,1,1.7094017094017093
28,22,w99,62,0,0,675,1,1.4814814814814814
28,22,b16,63,1,0,635,1,1.5748031496062993
28,22,w15,64,0,0,517,1,1.9342359767891684
28,22,w14,65,0,0,566,1,1.7667844522968197
28,22,b10,66,1,0,611,1,1.6366612111292962
28,22,b02,67,1,0,510,1,1.9607843137254901
28,22,w93,68,0,1,504,1,1.9841269841269842
28,22,b98,69,1,1,474,1,2.109704641350211
28,22,b14,70,1,1,564,1,1.7730496453900708
28,22,b03,71,1,1,445,1,2.247191011235955
28,22,b03,72,1,0,604,1,1.6556291390728477
28,22,b13,73,1,0,701,1,1.4265335235378032
28,22,w06,74,0,1,592,1,1.6891891891891893
28,22,w02,75,0,1,447,1,2.237136465324385
28,22,w17,76,0,1,538,1,1.858736059479554
28,22,w96,77,0,0,679,1,1.4727540500736378
28,22,w99,78,0,1,498,1,2.0080321285140563
28,22,w02,79,0,0,558,1,1.7921146953405018
28,22,w19,80,0,1,487,1,2.0533880903490758
28,22,b92,81,1,1,563,1,1.7761989342806395
28,22,w90,82,0,1,455,1,2.197802197802198
28,22,w05,83,0,1,496,1,2.0161290322580645
28,22,b01,84,1,1,537,1,1.86219739292365
28,22,b97,85,1,1,470,1,2.127659574468085
28,22,b90,86,1,0,628,1,1.5923566878980893
28,22,w04,87,0,0,520,1,1.9230769230769231
28,22,b09,88,1,1,616,1,1.6233766233766234
28,22,w01,89,0,1,538,1,1.858736059479554
28,22,w95,90,0,1,743,1,1.3458950201884252
28,22,w04,91,0,1,508,1,1.968503937007874
28,22,b92,92,1,0,573,1,1.7452006980802792
28,22,w90,93,0,0,649,1,1.5408320493066257
28,22,w94,94,0,0,551,1,1.8148820326678765
28,22,w14,95,0,1,527,1,1.8975332068311195
28,22,b11,96,1,1,671,1,1.4903129657228018
28,22,b04,97,1,0,681,1,1.4684287812041117
28,22,b98,98,1,0,633,1,1.5797788309636651
28,22,b94,99,1,1,573,1,1.7452006980802792
28,22,b05,100,1,0,674,1,1.4836795252225519
28,22,w08,101,0,1,608,1,1.644736842105263
28,22,b12,102,1,1,478,1,2.092050209205021
28,22,b13,103,1,1,443,1,2.2573363431151243
28,22,b99,104,1,0,576,1,1.7361111111111112
28,22,b96,105,1,0,457,1,2.1881838074398248
28,22,b96,106,1,1,469,1,2.1321961620469083
28,22,b95,107,1,1,447,1,2.237136465324385
28,22,w94,108,0,1,503,1,1.9880715705765408
28,22,w06,109,0,0,738,1,1.3550135501355014
28,22,w11,110,0,0,556,1,1.7985611510791366
28,22,w98,111,0,0,479,1,2.0876826722338206
28,22,w07,112,0,0,547,1,1.8281535648994516
28,22,b94,113,1,0,539,1,1.8552875695732838
28,22,b95,114,1,0,535,1,1.8691588785046729
28,22,w95,115,0,0,413,1,2.4213075060532687
28,22,b91,116,1,0,531,1,1.8832391713747645
28,22,w93,117,0,0,527,1,1.8975332068311195
28,22,w11,118,0,1,507,1,1.9723865877712032
4,34,w07,19,0,1,495,1,2.0202020202020203
4,34,w11,20,0,0,516,1,1.937984496124031
4,34,w99,21,0,0,539,1,1.8552875695732838
4,34,b02,22,1,0,466,1,2.1459227467811157
4,34,w94,23,0,1,504,1,1.9841269841269842
4,34,b92,24,1,0,475,1,2.1052631578947367
4,34,b11,25,1,1,546,1,1.8315018315018314
4,34,w14,26,0,1,572,1,1.7482517482517483
4,34,b95,27,1,1,494,1,2.0242914979757085
4,34,b01,28,1,1,478,1,2.092050209205021
4,34,b96,29,1,1,515,1,1.941747572815534
4,34,b14,30,1,0,753,1,1.3280212483399734
4,34,w03,31,0,1,482,1,2.074688796680498
4,34,b95,32,1,0,585,1,1.7094017094017093
4,34,b13,33,1,1,503,1,1.9880715705765408
4,34,w17,34,0,1,637,1,1.5698587127158556
4,34,b09,35,1,0,506,1,1.976284584980237
4,34,w19,36,0,0,639,1,1.5649452269170578
4,34,b12,37,1,1,502,1,1.9920318725099602
4,34,w95,38,0,0,564,1,1.7730496453900708
4,34,b16,39,1,1,553,1,1.8083182640144666
4,34,w97,40,0,0,521,1,1.9193857965451055
4,34,w98,41,0,0,619,1,1.615508885298869
4,34,w94,42,0,0,726,1,1.3774104683195592
4,34,w93,43,0,0,547,1,1.8281535648994516
4,34,b96,44,1,0,474,1,2.109704641350211
4,34,w02,45,0,1,602,1,1.6611295681063123
4,34,b92,46,1,1,506,1,1.976284584980237
4,34,w16,47,0,1,631,1,1.5847860538827259
4,34,w15,48,0,1,427,1,2.34192037470726
4,34,w02,49,0,0,530,1,1.8867924528301887
4,34,w07,50,0,0,519,1,1.9267822736030829
4,34,w13,51,0,0,522,1,1.9157088122605364
4,34,b98,52,1,1,522,1,1.9157088122605364
4,34,b02,53,1,1,540,1,1.8518518518518519
4,34,b04,54,1,0,611,1,1.6366612111292962
4,34,w05,55,0,0,673,1,1.485884101040119
4,34,b10,56,1,0,663,1,1.5082956259426847
4,34,w91,57,0,0,501,1,1.996007984031936
4,34,w17,58,0,0,558,1,1.7921146953405018
4,34,b10,59,1,1,771,1,1.297016861219196
4,34,b12,60,1,0,688,1,1.4534883720930232
4,34,b93,61,1,0,491,1,2.0366598778004072
4,34,b94,62,1,1,514,1,1.9455252918287937
4,34,b99,63,1,1,476,1,2.100840336134454
4,34,w06,64,0,1,466,1,2.1459227467811157
4,34,w93,65,0,1,469,1,2.1321961620469083
4,34,w96,66,0,1,472,1,2.1186440677966103
4,34,b04,67,1,1,490,1,2.0408163265306123
4,34,b94,68,1,0,723,1,1.3831258644536653
4,34,b97,69,1,0,817,1,1.2239902080783354
4,34,w05,70,0,1,509,1,1.9646365422396856
4,34,b93,71,1,1,492,1,2.032520325203252
4,34,w98,72,0,1,501,1,1.996007984031936
4,34,b05,73,1,0,633,1,1.5797788309636651
4,34,w08,74,0,0,716,1,1.3966480446927374
4,34,b08,75,1,0,759,1,1.3175230566534915
4,34,b05,76,1,1,532,1,1.8796992481203008
4,34,b91,77,1,0,641,1,1.5600624024960998
4,34,w04,78,0,0,565,1,1.7699115044247788
4,34,w99,79,0,1,585,1,1.7094017094017093
4,34,b17,80,1,1,708,1,1.4124293785310735
4,34,w92,81,0,0,571,1,1.7513134851138354
4,34,w08,82,0,1,504,1,1.9841269841269842
4,34,b97,83,1,1,617,1,1.6207455429497568
4,34,b07,84,1,1,461,1,2.1691973969631237
4,34,b07,85,1,0,706,1,1.4164305949008498
4,34,w03,86,0,0,713,1,1.402524544179523
4,34,b09,87,1,1,592,1,1.6891891891891893
4,34,w04,88,0,1,649,1,1.5408320493066257
4,34,w91,89,0,1,512,1,1.953125
4,34,w90,90,0,0,618,1,1.6181229773462784
4,34,w01,91,0,1,538,1,1.858736059479554
4,34,b03,92,1,1,517,1,1.9342359767891684
4,34,w15,93,0,0,601,1,1.663893510815308
4,34,b08,94,1,1,443,1,2.2573363431151243
4,34,b11,95,1,0,569,1,1.757469244288225
4,34,b01,96,1,0,625,1,1.6
4,34,w06,97,0,0,615,1,1.6260162601626016
4,34,b13,98,1,0,841,1,1.1890606420927468
4,34,b90,99,1,0,525,1,1.9047619047619047
4,34,b91,100,1,1,546,1,1.8315018315018314
4,34,w16,101,0,0,661,1,1.51285930408472
4,34,b90,102,1,1,551,1,1.8148820326678765
4,34,b16,103,1,0,600,1,1.6666666666666667
4,34,b03,104,1,0,554,1,1.8050541516245486
4,34,b98,105,1,0,610,1,1.639344262295082
4,34,w96,106,0,0,812,1,1.2315270935960592
4,34,w19,107,0,1,567,1,1.763668430335097
4,34,b17,108,1,0,600,1,1.6666666666666667
4,34,w14,109,0,0,578,1,1.7301038062283738
4,34,b99,110,1,0,599,1,1.669449081803005
4,34,b14,111,1,1,548,1,1.8248175182481752
4,34,w11,112,0,1,499,1,2.004008016032064
4,34,w97,113,0,1,494,1,2.0242914979757085
4,34,w13,114,0,1,712,1,1.404494382022472
4,34,w90,115,0,1,447,1,2.237136465324385
4,34,w95,116,0,1,547,1,1.8281535648994516
4,34,w92,117,0,1,678,1,1.4749262536873156
4,34,w01,118,0,0,656,1,1.524390243902439
34,19,w94,19,0,1,451,1,2.2172949002217295
34,19,b12,20,1,1,492,1,2.032520325203252
34,19,w90,21,0,0,636,1,1.5723270440251573
34,19,w97,22,0,0,636,1,1.5723270440251573
34,19,b16,23,1,1,529,1,1.890359168241966
34,19,w05,24,0,1,500,1,2.0
34,19,w07,25,0,1,578,1,1.7301038062283738
34,19,w08,26,0,1,591,1,1.6920473773265652
34,19,b90,27,1,0,686,1,1.4577259475218658
34,19,b16,28,1,0,567,1,1.763668430335097
34,19,b95,29,1,1,660,1,1.5151515151515151
34,19,w15,30,0,1,486,1,2.05761316872428
34,19,w08,31,0,0,587,1,1.7035775127768313
34,19,w98,32,0,0,699,1,1.4306151645207439
34,19,w01,33,0,1,520,1,1.9230769230769231
34,19,w06,34,0,0,691,1,1.447178002894356
34,19,w11,35,0,0,571,1,1.7513134851138354
34,19,w91,36,0,0,591,1,1.6920473773265652
34,19,w95,37,0,1,710,1,1.408450704225352
34,19,w90,38,0,1,521,1,1.9193857965451055
34,19,w04,39,0,0,564,1,1.7730496453900708
34,19,w16,40,0,1,725,1,1.3793103448275863
34,19,b01,41,1,0,554,1,1.8050541516245486
34,19,b09,42,1,1,708,1,1.4124293785310735
34,19,b03,43,1,1,559,1,1.7889087656529516
34,19,w19,44,0,1,630,1,1.5873015873015872
34,19,w14,45,0,1,587,1,1.7035775127768313
34,19,b09,46,1,0,595,1,1.680672268907563
34,19,w11,47,0,1,513,1,1.949317738791423
34,19,w03,48,0,0,645,1,1.550387596899225
34,19,w02,49,0,0,583,1,1.7152658662092624
34,19,w04,50,0,1,616,1,1.6233766233766234
34,19,b91,51,1,1,656,1,1.524390243902439
34,19,w19,52,0,0,590,1,1.694915254237288
34,19,w07,53,0,0,550,1,1.8181818181818181
34,19,w15,54,0,0,452,1,2.2123893805309733
34,19,b02,55,1,0,523,1,1.9120458891013383
34,19,b99,56,1,1,543,1,1.8416206261510129
34,19,b11,57,1,0,592,1,1.6891891891891893
34,19,b14,58,1,0,631,1,1.5847860538827259
34,19,w95,59,0,0,489,1,2.044989775051125
34,19,b95,60,1,0,520,1,1.9230769230769231
34,19,b98,61,1,0,709,1,1.4104372355430184
34,19,b13,62,1,1,595,1,1.680672268907563
34,19,b05,63,1,1,554,1,1.8050541516245486
34,19,w94,64,0,0,592,1,1.6891891891891893
34,19,w93,65,0,1,542,1,1.845018450184502
34,19,w17,66,0,0,670,1,1.492537313432836
34,19,w99,67,0,1,700,1,1.4285714285714286
34,19,b97,68,1,1,479,1,2.0876826722338206
34,19,b96,69,1,1,498,1,2.0080321285140563
34,19,b91,70,1,0,617,1,1.6207455429497568
34,19,w17,71,0,1,705,1,1.4184397163120568
34,19,w06,72,0,1,668,1,1.4970059880239521
34,19,w16,73,0,0,500,1,2.0
34,19,b96,74,1,0,545,1,1.834862385321101
34,19,b11,75,1,1,639,1,1.5649452269170578
34,19,w92,76,0,0,544,1,1.838235294117647
34,19,b14,77,1,1,515,1,1.941747572815534
34,19,w98,78,0,1,518,1,1.9305019305019304
34,19,b93,79,1,0,578,1,1.7301038062283738
34,19,w02,80,0,1,449,1,2.2271714922048997
34,19,w13,81,0,1,554,1,1.8050541516245486
34,19,b90,82,1,1,615,1,1.6260162601626016
34,19,b05,83,1,0,593,1,1.6863406408094435
34,19,w91,84,0,1,553,1,1.8083182640144666
34,19,w93,85,0,0,576,1,1.7361111111111112
34,19,w96,86,0,1,636,1,1.5723270440251573
34,19,w14,87,0,0,536,1,1.8656716417910448
34,19,b93,88,1,1,468,1,2.1367521367521367
34,19,b10,89,1,1,525,0,1.9047619047619047
34,19,b13,90,1,0,788,1,1.2690355329949239
34,19,w99,91,0,0,562,1,1.7793594306049823
34,19,b04,92,1,1,623,1,1.6051364365971108
34,19,b92,93,1,1,606,1,1.6501650165016502
34,19,w13,94,0,0,603,1,1.658374792703151
34,19,b98,95,1,1,579,1,1.7271157167530224
34,19,b92,96,1,0,638,1,1.567398119122257
34,19,b08,97,1,0,592,1,1.6891891891891893
34,19,b99,98,1,0,585,1,1.7094017094017093
34,19,w97,99,0,1,578,1,1.7301038062283738
34,19,w03,100,0,1,737,1,1.3568521031207599
34,19,w05,101,0,0,641,1,1.5600624024960998
34,19,b04,102,1,0,600,1,1.6666666666666667
34,19,w92,103,0,1,749,1,1.335113484646195
34,19,w96,104,0,0,661,1,1.51285930408472
34,19,w01,105,0,0,648,1,1.5432098765432098
34,19,b10,106,1,0,555,1,1.8018018018018018
34,19,b12,107,1,0,713,1,1.402524544179523
34,19,b08,108,1,1,601,1,1.663893510815308
34,19,b17,109,1,0,623,1,1.6051364365971108
34,19,b94,110,1,1,511,1,1.9569471624266144
34,19,b01,111,1,1,499,1,2.004008016032064
34,19,b03,112,1,0,558,1,1.7921146953405018
34,19,b94,113,1,0,635,1,1.5748031496062993
34,19,b17,114,1,1,632,1,1.5822784810126582
34,19,b97,115,1,0,649,1,1.5408320493066257
34,19,b07,117,1,1,651,1,1.5360983102918586
34,19,b02,118,1,1,619,1,1.615508885298869
20,26,b02,19,1,1,617,1,1.6207455429497568
20,26,w01,20,0,1,620,1,1.6129032258064515
20,26,w96,21,0,1,683,1,1.4641288433382138
20,26,b14,22,1,1,699,1,1.4306151645207439
20,26,b17,23,1,0,783,1,1.277139208173691
20,26,w11,24,0,0,663,1,1.5082956259426847
20,26,w91,25,0,0,571,1,1.7513134851138354
20,26,b98,26,1,1,582,1,1.7182130584192439
20,26,w90,27,0,1,441,1,2.2675736961451247
20,26,w02,28,0,0,559,1,1.7889087656529516
20,26,w97,29,0,1,533,1,1.876172607879925
20,26,b04,30,1,0,609,1,1.6420361247947455
20,26,b16,31,1,0,632,1,1.5822784810126582
20,26,b17,32,1,1,635,1,1.5748031496062993
20,26,w93,33,0,0,728,1,1.3736263736263736
20,26,w13,34,0,0,632,1,1.5822784810126582
20,26,w08,35,0,1,800,1,1.25
20,26,b93,36,1,1,768,1,1.3020833333333333
20,26,w05,37,0,0,778,1,1.2853470437017995
20,26,w15,38,0,1,564,1,1.7730496453900708
20,26,w94,39,0,1,576,1,1.7361111111111112
20,26,w96,40,0,0,732,1,1.366120218579235
20,26,w92,41,0,0,645,1,1.550387596899225
20,26,b99,42,1,1,559,1,1.7889087656529516
20,26,b04,43,1,1,611,1,1.6366612111292962
20,26,w07,44,0,0,555,1,1.8018018018018018
20,26,w11,45,0,1,593,1,1.6863406408094435
20,26,b05,46,1,1,634,1,1.5772870662460567
20,26,w19,47,0,0,675,1,1.4814814814814814
20,26,w06,49,0,0,603,1,1.658374792703151
20,26,b93,50,1,0,660,1,1.5151515151515151
20,26,w17,51,0,0,642,1,1.557632398753894
20,26,w02,52,0,1,605,1,1.6528925619834711
20,26,w19,53,0,1,588,0,1.7006802721088434
20,26,b03,54,1,1,536,1,1.8656716417910448
20,26,b96,55,1,0,577,1,1.733102253032929
20,26,w03,56,0,1,616,0,1.6233766233766234
20,26,b90,57,1,1,511,1,1.9569471624266144
20,26,b12,58,1,1,497,1,2.0120724346076457
20,26,b12,59,1,0,837,1,1.1947431302270013
20,26,b10,60,1,0,839,1,1.1918951132300357
20,26,b11,61,1,1,771,1,1.297016861219196
20,26,b03,62,1,0,587,1,1.7035775127768313
20,26,w14,63,0,0,606,1,1.6501650165016502
20,26,w94,64,0,0,553,1,1.8083182640144666
20,26,w93,65,0,1,602,1,1.6611295681063123
20,26,w92,66,0,1,778,1,1.2853470437017995
20,26,w98,67,0,1,597,1,1.6750418760469012
20,26,w91,68,0,1,644,1,1.5527950310559007
20,26,w16,69,0,0,680,1,1.4705882352941178
20,26,b96,70,1,1,647,1,1.545595054095827
20,26,w15,71,0,0,638,1,1.567398119122257
20,26,w06,72,0,1,623,1,1.6051364365971108
20,26,w08,73,0,0,705,1,1.4184397163120568
20,26,w99,74,0,1,643,1,1.5552099533437014
20,26,b02,75,1,0,622,1,1.607717041800643
20,26,b11,76,1,0,610,1,1.639344262295082
20,26,w17,77,0,1,830,1,1.2048192771084338
20,26,w95,78,0,1,795,1,1.2578616352201257
20,26,b07,79,1,1,551,1,1.8148820326678765
20,26,b01,80,1,1,499,1,2.004008016032064
20,26,w13,81,0,1,605,1,1.6528925619834711
20,26,w98,83,0,0,705,1,1.4184397163120568
20,26,b94,84,1,0,681,1,1.4684287812041117
20,26,w16,85,0,1,640,1,1.5625
20,26,w90,86,0,0,651,1,1.5360983102918586
20,26,b05,87,1,0,750,1,1.3333333333333333
20,26,b16,88,1,1,576,1,1.7361111111111112
20,26,w04,89,0,1,538,1,1.858736059479554
20,26,b98,91,1,0,717,1,1.394700139470014
20,26,b14,92,1,0,675,1,1.4814814814814814
20,26,b13,93,1,1,545,1,1.834862385321101
20,26,w07,94,0,1,581,0,1.721170395869191
20,26,b92,95,1,1,721,1,1.3869625520110958
20,26,w14,96,0,1,652,1,1.5337423312883436
20,26,w05,97,0,1,615,1,1.6260162601626016
20,26,b94,98,1,1,503,1,1.9880715705765408
20,26,b95,99,1,1,476,1,2.100840336134454
20,26,w04,100,0,0,724,1,1.3812154696132597
20,26,b13,101,1,0,593,0,1.6863406408094435
20,26,w99,102,0,0,700,1,1.4285714285714286
20,26,b01,103,1,0,737,1,1.3568521031207599
20,26,b08,104,1,0,738,1,1.3550135501355014
20,26,w95,105,0,0,690,1,1.4492753623188406
20,26,b91,106,1,1,585,1,1.7094017094017093
20,26,b99,107,1,0,776,1,1.288659793814433
20,26,b95,108,1,0,683,1,1.4641288433382138
20,26,b91,109,1,0,613,1,1.6313213703099512
20,26,b97,110,1,1,797,1,1.2547051442910917
20,26,b08,111,1,1,578,1,1.7301038062283738
20,26,b09,112,1,0,756,1,1.3227513227513228
20,26,b92,113,1,0,710,1,1.408450704225352
20,26,b09,114,1,1,817,1,1.2239902080783354
20,26,b97,116,1,0,792,1,1.2626262626262625
20,26,b10,117,1,1,584,1,1.7123287671232876
20,26,b07,118,1,0,720,1,1.3888888888888888
1,35,w05,19,0,0,658,1,1.5197568389057752
1,35,w15,20,0,0,622,1,1.607717041800643
1,35,b92,21,1,0,639,1,1.5649452269170578
1,35,w11,22,0,0,494,1,2.0242914979757085
1,35,b93,23,1,0,562,1,1.7793594306049823
1,35,w15,24,0,1,552,1,1.8115942028985508
1,35,w03,25,0,1,533,1,1.876172607879925
1,35,w11,26,0,1,506,1,1.976284584980237
1,35,b91,27,1,1,408,1,2.450980392156863
1,35,b03,28,1,0,580,1,1.7241379310344827
1,35,b93,29,1,1,502,1,1.9920318725099602
1,35,w14,30,0,0,602,1,1.6611295681063123
1,35,b95,31,1,1,493,1,2.028397565922921
1,35,b90,32,1,1,607,1,1.6474464579901154
1,35,w17,33,0,1,750,1,1.3333333333333333
1,35,w96,34,0,0,627,1,1.594896331738437
1,35,w02,35,0,0,625,1,1.6
1,35,b12,36,1,0,721,1,1.3869625520110958
1,35,b99,37,1,1,474,1,2.109704641350211
1,35,w04,38,0,1,536,1,1.8656716417910448
1,35,b92,39,1,1,545,1,1.834862385321101
1,35,w90,40,0,1,467,1,2.1413276231263385
1,35,w97,41,0,0,681,1,1.4684287812041117
1,35,b04,42,1,0,619,1,1.615508885298869
1,35,b97,43,1,0,690,1,1.4492753623188406
1,35,w91,44,0,1,731,1,1.3679890560875514
1,35,b98,45,1,0,690,1,1.4492753623188406
1,35,b17,46,1,1,772,1,1.2953367875647668
1,35,w02,47,0,1,745,1,1.342281879194631
1,35,w07,48,0,0,698,1,1.4326647564469914
1,35,w90,49,0,0,731,1,1.3679890560875514
1,35,w07,50,0,1,589,1,1.697792869269949
1,35,w06,51,0,0,734,1,1.3623978201634876
1,35,w16,52,0,1,642,1,1.557632398753894
1,35,w93,53,0,0,813,1,1.2300123001230012
1,35,b09,54,1,0,693,1,1.443001443001443
1,35,b09,55,1,1,751,1,1.3315579227696406
1,35,w01,56,0,0,761,1,1.314060446780552
1,35,b08,57,1,1,603,1,1.658374792703151
1,35,w03,58,0,0,751,1,1.3315579227696406
1,35,w01,59,0,1,555,1,1.8018018018018018
1,35,b95,61,1,0,661,1,1.51285930408472
1,35,b02,62,1,0,699,1,1.4306151645207439
1,35,w19,63,0,1,475,1,2.1052631578947367
1,35,b96,64,1,1,478,1,2.092050209205021
1,35,b01,65,1,0,817,1,1.2239902080783354
1,35,b98,66,1,1,507,1,1.9723865877712032
1,35,w13,67,0,1,599,1,1.669449081803005
1,35,b12,68,1,1,458,1,2.183406113537118
1,35,b01,69,1,1,508,1,1.968503937007874
1,35,w94,70,0,0,620,1,1.6129032258064515
1,35,w99,71,0,1,468,1,2.1367521367521367
1,35,w93,72,0,1,438,1,2.2831050228310503
1,35,b90,73,1,0,849,1,1.1778563015312131
1,35,w98,74,0,1,459,1,2.178649237472767
1,35,b14,75,1,0,613,1,1.6313213703099512
1,35,w95,76,0,1,695,1,1.4388489208633093
1,35,b08,77,1,0,667,1,1.4992503748125936
1,35,b17,78,1,0,619,1,1.615508885298869
1,35,w16,79,0,0,631,1,1.5847860538827259
1,35,b91,80,1,0,620,1,1.6129032258064515
1,35,b99,81,1,0,653,1,1.5313935681470139
1,35,b13,82,1,0,819,1,1.221001221001221
1,35,b02,83,1,1,590,1,1.694915254237288
1,35,w19,84,0,0,648,1,1.5432098765432098
1,35,w04,85,0,0,564,1,1.7730496453900708
1,35,b96,86,1,0,448,1,2.232142857142857
1,35,b03,87,1,1,510,1,1.9607843137254901
1,35,b05,89,1,0,663,1,1.5082956259426847
1,35,b16,90,1,1,442,1,2.262443438914027
1,35,w17,91,0,0,640,1,1.5625
1,35,b16,92,1,0,540,1,1.8518518518518519
1,35,b14,93,1,1,679,1,1.4727540500736378
1,35,w99,94,0,0,621,1,1.6103059581320451
1,35,b13,95,1,1,489,1,2.044989775051125
1,35,w06,96,0,1,570,1,1.7543859649122806
1,35,w91,97,0,0,566,1,1.7667844522968197
1,35,b07,98,1,0,714,1,1.4005602240896358
1,35,b11,99,1,0,578,1,1.7301038062283738
1,35,w08,100,0,1,494,1,2.0242914979757085
1,35,b94,101,1,1,442,1,2.262443438914027
1,35,w05,102,0,1,423,1,2.3640661938534278
1,35,w94,103,0,1,444,1,2.2522522522522523
1,35,b94,104,1,0,808,1,1.2376237623762376
1,35,w95,105,0,0,606,1,1.6501650165016502
1,35,w14,106,0,1,505,1,1.9801980198019802
1,35,b10,107,1,0,843,1,1.1862396204033214
1,35,w97,108,0,1,525,1,1.9047619047619047
1,35,b97,109,1,1,739,1,1.3531799729364005
1,35,b11,110,1,1,516,1,1.937984496124031
1,35,w13,111,0,0,755,1,1.3245033112582782
1,35,w98,112,0,0,646,1,1.5479876160990713
1,35,b04,113,1,1,513,1,1.949317738791423
1,35,b05,114,1,1,551,1,1.8148820326678765
1,35,b07,115,1,1,445,1,2.247191011235955
1,35,w96,117,0,1,534,1,1.8726591760299625
1,35,w08,118,0,0,714,1,1.4005602240896358
35,18,w93,19,0,1,592,1,1.6891891891891893
35,18,b99,20,1,0,814,1,1.2285012285012284
35,18,w93,21,0,0,699,1,1.4306151645207439
35,18,b96,22,1,1,606,1,1.6501650165016502
35,18,w13,23,0,1,599,1,1.669449081803005
35,18,b94,24,1,1,474,1,2.109704641350211
35,18,b96,25,1,0,560,1,1.7857142857142858
35,18,b03,26,1,1,456,1,2.192982456140351
35,18,w98,27,0,0,626,1,1.597444089456869
35,18,b09,28,1,1,560,1,1.7857142857142858
35,18,b91,29,1,0,718,1,1.392757660167131
35,18,b11,30,1,1,605,1,1.6528925619834711
35,18,w96,31,0,1,575,1,1.7391304347826086
35,18,b98,32,1,0,696,1,1.4367816091954022
35,18,w17,33,0,1,750,1,1.3333333333333333
35,18,w19,34,0,1,454,1,2.202643171806167
35,18,w99,35,0,0,619,1,1.615508885298869
35,18,b05,36,1,0,614,1,1.6286644951140066
35,18,b17,37,1,1,676,1,1.4792899408284024
35,18,b14,38,1,0,725,1,1.3793103448275863
35,18,b90,39,1,0,622,1,1.607717041800643
35,18,b07,40,1,1,509,1,1.9646365422396856
35,18,w90,41,0,0,629,1,1.589825119236884
35,18,w92,42,0,1,670,1,1.492537313432836
35,18,w11,43,0,0,641,1,1.5600624024960998
35,18,w17,44,0,0,648,0,1.5432098765432098
35,18,b16,45,1,1,588,1,1.7006802721088434
35,18,w04,46,0,0,614,1,1.6286644951140066
35,18,b04,47,1,0,625,1,1.6
35,18,w03,48,0,0,788,1,1.2690355329949239
35,18,w13,49,0,0,618,1,1.6181229773462784
35,18,w14,50,0,1,649,1,1.5408320493066257
35,18,w91,51,0,0,648,1,1.5432098765432098
35,18,b12,52,1,0,812,1,1.2315270935960592
35,18,w97,53,0,1,586,1,1.7064846416382253
35,18,b09,54,1,0,638,1,1.567398119122257
35,18,w07,55,0,1,717,1,1.394700139470014
35,18,w95,56,0,1,696,1,1.4367816091954022
35,18,b02,57,1,1,609,1,1.6420361247947455
35,18,b14,58,1,1,461,1,2.1691973969631237
35,18,w92,59,0,0,639,1,1.5649452269170578
35,18,w99,60,0,1,699,1,1.4306151645207439
35,18,b93,61,1,0,767,1,1.303780964797914
35,18,b92,62,1,1,682,1,1.466275659824047
35,18,b97,63,1,1,682,1,1.466275659824047
35,18,w16,64,0,0,652,1,1.5337423312883436
35,18,b05,65,1,1,535,1,1.8691588785046729
35,18,w96,66,0,0,721,1,1.3869625520110958
35,18,b13,67,1,0,832,1,1.2019230769230769
35,18,b10,68,1,0,718,1,1.392757660167131
35,18,b95,69,1,0,796,1,1.256281407035176
35,18,b17,70,1,0,669,1,1.4947683109118086
35,18,b93,71,1,1,609,1,1.6420361247947455
35,18,w01,72,0,1,670,1,1.492537313432836
35,18,b97,73,1,0,770,1,1.2987012987012987
35,18,w90,74,0,1,660,1,1.5151515151515151
35,18,w08,75,0,1,772,1,1.2953367875647668
35,18,w02,76,0,1,596,1,1.6778523489932886
35,18,b04,77,1,1,561,1,1.7825311942959001
35,18,w06,78,0,1,531,1,1.8832391713747645
35,18,b08,79,1,1,489,1,2.044989775051125
35,18,w97,80,0,0,665,1,1.5037593984962405
35,18,w01,82,0,0,589,1,1.697792869269949
35,18,w14,83,0,0,592,1,1.6891891891891893
35,18,b91,84,1,1,645,1,1.550387596899225
35,18,w03,85,0,1,535,1,1.8691588785046729
35,18,b10,86,1,1,618,1,1.6181229773462784
35,18,b98,87,1,1,715,1,1.3986013986013985
35,18,w94,88,0,1,504,1,1.9841269841269842
35,18,w95,89,0,0,844,1,1.1848341232227488
35,18,b95,90,1,1,844,1,1.1848341232227488
35,18,w16,91,0,1,548,1,1.8248175182481752
35,18,b13,92,1,1,560,1,1.7857142857142858
35,18,w98,93,0,1,512,1,1.953125
35,18,w05,94,0,1,491,1,2.0366598778004072
35,18,w91,95,0,1,501,1,1.996007984031936
35,18,w08,96,0,0,698,1,1.4326647564469914
35,18,w19,97,0,0,703,1,1.422475106685633
35,18,b90,98,1,1,630,1,1.5873015873015872
35,18,w94,99,0,0,588,1,1.7006802721088434
35,18,b01,100,1,0,630,1,1.5873015873015872
35,18,w02,101,0,0,560,1,1.7857142857142858
35,18,b11,102,1,0,677,1,1.4771048744460857
35,18,b07,103,1,0,608,1,1.644736842105263
35,18,b03,104,1,0,677,1,1.4771048744460857
35,18,b12,105,1,1,691,1,1.447178002894356
35,18,b01,106,1,1,566,1,1.7667844522968197
35,18,w04,107,0,1,662,1,1.5105740181268883
35,18,w11,108,0,1,440,1,2.272727272727273
35,18,b08,109,1,0,612,1,1.6339869281045751
35,18,w05,110,0,0,778,1,1.2853470437017995
35,18,b94,111,1,0,714,1,1.4005602240896358
35,18,w15,112,0,0,573,1,1.7452006980802792
35,18,w07,113,0,0,490,1,2.0408163265306123
35,18,w15,114,0,1,476,0,2.100840336134454
35,18,b92,115,1,0,642,1,1.557632398753894
35,18,b02,116,1,0,566,1,1.7667844522968197
35,18,b16,117,1,0,721,1,1.3869625520110958
35,18,b99,118,1,1,431,1,2.320185614849188
21,25,b13,19,1,1,456,1,2.192982456140351
21,25,w97,20,0,0,389,0,2.570694087403599
21,25,w97,21,0,1,664,1,1.5060240963855422
21,25,w19,22,0,0,773,1,1.2936610608020698
21,25,b97,23,1,1,607,1,1.6474464579901154
21,25,b99,24,1,0,470,0,2.127659574468085
21,25,w91,25,0,0,561,1,1.7825311942959001
21,25,b16,26,1,0,607,1,1.6474464579901154
21,25,w13,27,0,0,791,1,1.2642225031605563
21,25,w11,28,0,1,731,1,1.3679890560875514
21,25,w93,29,0,0,660,1,1.5151515151515151
21,25,b91,30,1,1,518,1,1.9305019305019304
21,25,w14,31,0,0,663,1,1.5082956259426847
21,25,w13,32,0,1,649,1,1.5408320493066257
21,25,w03,33,0,0,710,1,1.408450704225352
21,25,b03,34,1,1,561,1,1.7825311942959001
21,25,w95,35,0,0,649,1,1.5408320493066257
21,25,b07,36,1,0,830,1,1.2048192771084338
21,25,w03,38,0,1,642,1,1.557632398753894
21,25,w06,39,0,1,697,1,1.4347202295552368
21,25,b05,40,1,0,649,1,1.5408320493066257
21,25,w14,41,0,1,538,1,1.858736059479554
21,25,w11,42,0,0,546,1,1.8315018315018314
21,25,w07,43,0,1,593,1,1.6863406408094435
21,25,w02,44,0,1,536,1,1.8656716417910448
21,25,b17,45,1,0,656,1,1.524390243902439
21,25,b09,46,1,1,594,1,1.6835016835016836
21,25,w01,47,0,0,627,1,1.594896331738437
21,25,b17,48,1,1,620,1,1.6129032258064515
21,25,b95,49,1,1,506,1,1.976284584980237
21,25,w98,50,0,0,591,1,1.6920473773265652
21,25,w16,51,0,0,604,1,1.6556291390728477
21,25,b96,52,1,0,452,1,2.2123893805309733
21,25,w95,53,0,1,702,1,1.4245014245014245
21,25,b05,54,1,1,577,1,1.733102253032929
21,25,b10,55,1,1,639,1,1.5649452269170578
21,25,b01,56,1,1,524,1,1.9083969465648856
21,25,w99,57,0,0,349,1,2.865329512893983
21,25,w08,58,0,0,724,1,1.3812154696132597
21,25,w04,59,0,1,547,1,1.8281535648994516
21,25,w94,60,0,0,640,1,1.5625
21,25,w15,61,0,1,542,1,1.845018450184502
21,25,b07,62,1,1,479,1,2.0876826722338206
21,25,b97,63,1,0,629,1,1.589825119236884
21,25,b03,65,1,0,714,1,1.4005602240896358
21,25,w96,66,0,1,577,1,1.733102253032929
21,25,b04,67,1,1,657,1,1.5220700152207
21,25,b02,68,1,0,685,1,1.4598540145985401
21,25,b09,70,1,0,550,1,1.8181818181818181
21,25,w92,71,0,0,601,1,1.663893510815308
21,25,w91,72,0,1,629,1,1.589825119236884
21,25,w17,73,0,0,660,1,1.5151515151515151
21,25,w93,74,0,1,489,1,2.044989775051125
21,25,w96,75,0,0,615,1,1.6260162601626016
21,25,b16,76,1,1,551,1,1.8148820326678765
21,25,b98,77,1,0,801,1,1.2484394506866416
21,25,b90,78,1,0,588,1,1.7006802721088434
21,25,w15,79,0,0,551,1,1.8148820326678765
21,25,b12,80,1,0,555,0,1.8018018018018018
21,25,b92,81,1,1,750,1,1.3333333333333333
21,25,w02,82,0,0,543,1,1.8416206261510129
21,25,w98,83,0,1,620,1,1.6129032258064515
21,25,b01,84,1,0,583,1,1.7152658662092624
21,25,b94,85,1,1,593,1,1.6863406408094435
21,25,b90,87,1,1,536,1,1.8656716417910448
21,25,b93,88,1,1,722,1,1.3850415512465375
21,25,w99,89,0,1,592,1,1.6891891891891893
21,25,w07,90,0,0,604,1,1.6556291390728477
21,25,w90,91,0,1,410,1,2.4390243902439024
21,25,b08,92,1,0,648,1,1.5432098765432098
21,25,w94,93,0,1,468,1,2.1367521367521367
21,25,w04,94,0,0,531,1,1.8832391713747645
21,25,w01,95,0,1,555,1,1.8018018018018018
21,25,b14,96,1,1,541,1,1.8484288354898337
21,25,w16,97,0,1,563,1,1.7761989342806395
21,25,w06,98,0,0,623,1,1.6051364365971108
21,25,w08,99,0,1,506,1,1.976284584980237
21,25,w05,100,0,0,650,1,1.5384615384615385
21,25,w19,101,0,1,505,1,1.9801980198019802
21,25,b93,102,1,0,515,1,1.941747572815534
21,25,b94,103,1,0,607,1,1.6474464579901154
21,25,b96,104,1,1,394,1,2.5380710659898478
21,25,w05,105,0,1,436,1,2.293577981651376
21,25,b12,106,1,1,352,1,2.840909090909091
21,25,w90,107,0,0,642,1,1.557632398753894
21,25,b14,108,1,0,836,1,1.1961722488038278
21,25,b04,109,1,0,667,1,1.4992503748125936
21,25,b10,110,1,0,594,1,1.6835016835016836
21,25,b95,111,1,0,498,1,2.0080321285140563
21,25,b98,112,1,1,795,1,1.2578616352201257
21,25,b02,113,1,1,714,1,1.4005602240896358
21,25,b11,114,1,0,670,1,1.492537313432836
21,25,b11,115,1,1,571,1,1.7513134851138354
21,25,b08,116,1,1,445,1,2.247191011235955
21,25,b99,117,1,1,527,1,1.8975332068311195
21,25,b92,118,1,0,603,1,1.658374792703151
12,30,b17,19,1,0,769,1,1.3003901170351104
12,30,b16,20,1,0,587,1,1.7035775127768313
12,30,w97,21,0,1,504,1,1.9841269841269842
12,30,w98,22,0,1,501,1,1.996007984031936
12,30,w01,23,0,0,657,1,1.5220700152207
12,30,b04,24,1,1,607,1,1.6474464579901154
12,30,b98,25,1,0,688,1,1.4534883720930232
12,30,b10,26,1,0,775,1,1.2903225806451613
12,30,b99,27,1,1,500,1,2.0
12,30,b99,28,1,0,655,1,1.5267175572519085
12,30,b96,29,1,1,537,1,1.86219739292365
12,30,w13,31,0,0,643,1,1.5552099533437014
12,30,b09,32,1,1,619,0,1.615508885298869
12,30,w15,34,0,0,608,1,1.644736842105263
12,30,w15,35,0,1,603,1,1.658374792703151
12,30,w11,36,0,1,848,0,1.179245283018868
12,30,w95,37,0,1,846,1,1.1820330969267139
12,30,b01,38,1,1,678,1,1.4749262536873156
12,30,b95,39,1,0,809,1,1.2360939431396787
12,30,b03,40,1,0,603,1,1.658374792703151
12,30,w02,41,0,1,443,1,2.2573363431151243
12,30,b02,42,1,0,754,1,1.3262599469496021
12,30,w94,43,0,1,472,0,2.1186440677966103
12,30,w90,44,0,1,767,1,1.303780964797914
12,30,w02,45,0,0,531,1,1.8832391713747645
12,30,b07,46,1,1,772,1,1.2953367875647668
12,30,b02,47,1,1,719,1,1.3908205841446453
12,30,w05,48,0,1,563,1,1.7761989342806395
12,30,w14,49,0,1,586,1,1.7064846416382253
12,30,w11,50,0,0,601,1,1.663893510815308
12,30,w03,51,0,0,614,1,1.6286644951140066
12,30,w19,52,0,1,607,0,1.6474464579901154
12,30,b12,53,1,1,715,1,1.3986013986013985
12,30,w91,54,0,0,630,1,1.5873015873015872
12,30,b05,55,1,0,815,1,1.2269938650306749
12,30,b91,57,1,1,446,1,2.242152466367713
12,30,w17,58,0,0,631,1,1.5847860538827259
12,30,w08,59,0,1,676,0,1.4792899408284024
12,30,w17,60,0,1,620,1,1.6129032258064515
12,30,b08,61,1,1,536,1,1.8656716417910448
12,30,b08,62,1,0,630,1,1.5873015873015872
12,30,w08,63,0,0,706,1,1.4164305949008498
12,30,b94,64,1,0,677,1,1.4771048744460857
12,30,w91,65,0,1,658,1,1.5197568389057752
12,30,w92,66,0,0,665,1,1.5037593984962405
12,30,b95,67,1,1,536,1,1.8656716417910448
12,30,w04,68,0,0,593,1,1.6863406408094435
12,30,w06,69,0,1,759,1,1.3175230566534915
12,30,b11,70,1,0,681,1,1.4684287812041117
12,30,w04,71,0,1,819,1,1.221001221001221
12,30,b03,72,1,1,566,1,1.7667844522968197
12,30,b11,73,1,1,697,1,1.4347202295552368
12,30,b90,74,1,0,594,1,1.6835016835016836
12,30,w93,75,0,0,682,1,1.466275659824047
12,30,w99,76,0,1,690,0,1.4492753623188406
12,30,b96,77,1,0,582,1,1.7182130584192439
12,30,w05,78,0,0,780,1,1.2820512820512822
12,30,b13,79,1,1,573,1,1.7452006980802792
12,30,w16,80,0,0,602,1,1.6611295681063123
12,30,b91,81,1,0,612,1,1.6339869281045751
12,30,w98,82,0,0,720,1,1.3888888888888888
12,30,w97,83,0,0,617,1,1.6207455429497568
12,30,b14,84,1,0,682,1,1.466275659824047
12,30,w96,85,0,1,590,1,1.694915254237288
12,30,b17,86,1,1,657,1,1.5220700152207
12,30,w16,87,0,1,591,1,1.6920473773265652
12,30,b14,88,1,1,529,1,1.890359168241966
12,30,b07,89,1,0,716,1,1.3966480446927374
12,30,w19,90,0,0,753,1,1.3280212483399734
12,30,w03,91,0,1,635,1,1.5748031496062993
12,30,w07,92,0,0,596,1,1.6778523489932886
12,30,b92,94,1,1,564,1,1.7730496453900708
12,30,b04,95,1,0,732,1,1.366120218579235
12,30,w93,96,0,1,591,1,1.6920473773265652
12,30,w07,97,0,1,611,1,1.6366612111292962
12,30,b94,98,1,1,539,1,1.8552875695732838
12,30,w90,99,0,0,714,1,1.4005602240896358
12,30,w01,100,0,1,576,1,1.7361111111111112
12,30,b16,101,1,1,583,1,1.7152658662092624
12,30,w92,102,0,1,675,1,1.4814814814814814
12,30,w96,103,0,0,760,1,1.3157894736842106
12,30,w94,104,0,0,796,1,1.256281407035176
12,30,b90,105,1,1,598,1,1.6722408026755853
12,30,b12,106,1,0,685,1,1.4598540145985401
12,30,b05,107,1,1,549,1,1.8214936247723132
12,30,b93,108,1,1,545,1,1.834862385321101
12,30,b10,109,1,1,721,1,1.3869625520110958
12,30,w99,110,0,0,684,1,1.4619883040935673
12,30,b93,111,1,0,679,1,1.4727540500736378
12,30,w13,112,0,1,557,1,1.7953321364452424
12,30,w14,113,0,0,620,1,1.6129032258064515
12,30,b09,114,1,0,591,1,1.6920473773265652
12,30,b01,115,1,0,596,1,1.6778523489932886
12,30,b97,116,1,1,631,1,1.5847860538827259
12,30,b98,117,1,1,663,1,1.5082956259426847
12,30,b92,118,1,0,655,1,1.5267175572519085
6,33,w96,19,0,0,786,1,1.272264631043257
6,33,w15,20,0,1,444,1,2.2522522522522523
6,33,w95,21,0,1,564,1,1.7730496453900708
6,33,b91,22,1,0,731,1,1.3679890560875514
6,33,w02,23,0,0,597,1,1.6750418760469012
6,33,w99,24,0,0,579,0,1.7271157167530224
6,33,b96,25,1,1,526,1,1.9011406844106464
6,33,b02,27,1,1,656,1,1.524390243902439
6,33,w06,28,0,0,668,1,1.4970059880239521
6,33,b90,29,1,0,567,1,1.763668430335097
6,33,b03,30,1,0,558,1,1.7921146953405018
6,33,b93,31,1,0,637,1,1.5698587127158556
6,33,b04,32,1,1,570,1,1.7543859649122806
6,33,w02,33,0,1,574,1,1.7421602787456445
6,33,w03,34,0,1,630,1,1.5873015873015872
6,33,b97,35,1,0,742,1,1.3477088948787062
6,33,b13,36,1,0,719,1,1.3908205841446453
6,33,w15,37,0,0,725,1,1.3793103448275863
6,33,b99,38,1,1,462,1,2.1645021645021645
6,33,b16,39,1,1,583,1,1.7152658662092624
6,33,w94,40,0,1,624,1,1.6025641025641026
6,33,b17,41,1,0,619,1,1.615508885298869
6,33,w98,42,0,0,625,1,1.6
6,33,w19,43,0,1,489,1,2.044989775051125
6,33,w11,44,0,1,540,1,1.8518518518518519
6,33,w91,45,0,0,580,1,1.7241379310344827
6,33,w92,46,0,0,614,1,1.6286644951140066
6,33,b95,47,1,1,480,1,2.0833333333333335
6,33,w99,48,0,1,547,1,1.8281535648994516
6,33,w13,49,0,0,565,1,1.7699115044247788
6,33,b95,50,1,0,562,1,1.7793594306049823
6,33,b17,51,1,1,639,1,1.5649452269170578
6,33,b16,52,1,0,628,1,1.5923566878980893
6,33,w94,53,0,0,569,1,1.757469244288225
6,33,w11,54,0,0,560,1,1.7857142857142858
6,33,b10,55,1,0,701,1,1.4265335235378032
6,33,w01,56,0,1,489,1,2.044989775051125
6,33,w90,57,0,0,592,1,1.6891891891891893
6,33,w16,58,0,1,625,1,1.6
6,33,w19,59,0,0,604,1,1.6556291390728477
6,33,b01,60,1,1,558,1,1.7921146953405018
6,33,b92,61,1,0,586,1,1.7064846416382253
6,33,b98,62,1,1,525,1,1.9047619047619047
6,33,b11,63,1,1,628,1,1.5923566878980893
6,33,w07,64,0,0,552,1,1.8115942028985508
6,33,w97,65,0,1,487,1,2.0533880903490758
6,33,b09,66,1,1,552,1,1.8115942028985508
6,33,b05,67,1,0,589,1,1.697792869269949
6,33,w95,68,0,0,674,1,1.4836795252225519
6,33,w96,69,0,1,509,1,1.9646365422396856
6,33,w14,70,0,1,602,1,1.6611295681063123
6,33,b10,71,1,1,701,1,1.4265335235378032
6,33,b91,72,1,1,419,1,2.386634844868735
6,33,b02,73,1,0,559,1,1.7889087656529516
6,33,w16,74,0,0,663,1,1.5082956259426847
6,33,w04,75,0,1,654,1,1.529051987767584
6,33,w98,76,0,1,542,1,1.845018450184502
6,33,b90,77,1,1,567,1,1.763668430335097
6,33,b99,78,1,0,633,1,1.5797788309636651
6,33,b08,79,1,0,674,1,1.4836795252225519
6,33,w04,80,0,0,666,1,1.5015015015015014
6,33,w08,81,0,1,554,1,1.8050541516245486
6,33,w06,82,0,1,661,1,1.51285930408472
6,33,w17,83,0,1,698,1,1.4326647564469914
6,33,w05,84,0,1,481,1,2.079002079002079
6,33,b14,85,1,0,656,1,1.524390243902439
6,33,w93,86,0,0,613,1,1.6313213703099512
6,33,w03,87,0,0,497,0,2.0120724346076457
6,33,w93,88,0,1,540,1,1.8518518518518519
6,33,b94,89,1,0,581,1,1.721170395869191
6,33,b01,90,1,0,519,1,1.9267822736030829
6,33,w13,91,0,1,574,1,1.7421602787456445
6,33,w91,92,0,1,573,1,1.7452006980802792
6,33,b14,93,1,1,516,1,1.937984496124031
6,33,w17,94,0,0,648,1,1.5432098765432098
6,33,b92,95,1,1,513,1,1.949317738791423
6,33,b94,96,1,1,506,1,1.976284584980237
6,33,b97,97,1,1,419,1,2.386634844868735
6,33,b05,98,1,1,505,1,1.9801980198019802
6,33,b03,99,1,1,419,1,2.386634844868735
6,33,b04,100,1,0,661,1,1.51285930408472
6,33,w14,101,0,0,639,1,1.5649452269170578
6,33,w97,102,0,0,607,1,1.6474464579901154
6,33,b12,103,1,0,615,1,1.6260162601626016
6,33,b09,104,1,0,532,1,1.8796992481203008
6,33,w05,105,0,0,563,1,1.7761989342806395
6,33,w08,106,0,0,503,1,1.9880715705765408
6,33,w01,107,0,0,558,1,1.7921146953405018
6,33,w07,108,0,1,587,1,1.7035775127768313
6,33,b07,109,1,0,635,1,1.5748031496062993
6,33,w90,110,0,1,611,1,1.6366612111292962
6,33,b96,111,1,0,582,1,1.7182130584192439
6,33,b98,112,1,0,596,1,1.6778523489932886
6,33,b07,113,1,1,613,1,1.6313213703099512
6,33,b08,114,1,1,482,1,2.074688796680498
6,33,b93,115,1,1,512,1,1.953125
6,33,b11,116,1,0,650,1,1.5384615384615385
6,33,b13,117,1,1,506,1,1.976284584980237
6,33,b12,118,1,1,483,1,2.070393374741201
7,32,w13,19,0,0,519,1,1.9267822736030829
7,32,w17,20,0,1,633,1,1.5797788309636651
7,32,b97,21,1,0,752,1,1.3297872340425532
7,32,b90,22,1,0,562,1,1.7793594306049823
7,32,b05,23,1,0,684,1,1.4619883040935673
7,32,w01,24,0,1,508,1,1.968503937007874
7,32,w90,25,0,0,567,1,1.763668430335097
7,32,w04,26,0,0,666,1,1.5015015015015014
7,32,w91,27,0,1,742,1,1.3477088948787062
7,32,b04,28,1,1,621,1,1.6103059581320451
7,32,w95,29,0,1,735,1,1.3605442176870748
7,32,b92,30,1,1,521,1,1.9193857965451055
7,32,b13,31,1,1,506,1,1.976284584980237
7,32,b03,32,1,1,472,1,2.1186440677966103
7,32,w16,33,0,0,632,1,1.5822784810126582
7,32,w11,34,0,1,464,1,2.1551724137931036
7,32,w98,35,0,0,631,1,1.5847860538827259
7,32,b09,36,1,1,527,1,1.8975332068311195
7,32,b93,37,1,0,628,1,1.5923566878980893
7,32,b10,38,1,0,762,1,1.3123359580052494
7,32,w02,39,0,0,654,1,1.529051987767584
7,32,b16,40,1,1,529,1,1.890359168241966
7,32,b07,41,1,1,518,1,1.9305019305019304
7,32,b93,42,1,1,441,1,2.2675736961451247
7,32,b01,43,1,0,679,1,1.4727540500736378
7,32,w17,44,0,0,744,1,1.3440860215053763
7,32,w02,45,0,1,605,1,1.6528925619834711
7,32,w95,46,0,0,605,1,1.6528925619834711
7,32,w07,47,0,1,623,1,1.6051364365971108
7,32,b10,48,1,1,772,1,1.2953367875647668
7,32,b90,49,1,1,700,1,1.4285714285714286
7,32,b94,51,1,1,528,1,1.893939393939394
7,32,b96,52,1,1,554,1,1.8050541516245486
7,32,w14,53,0,0,647,1,1.545595054095827
7,32,w03,55,0,0,826,1,1.2106537530266344
7,32,w08,56,0,1,628,1,1.5923566878980893
7,32,w90,57,0,1,546,1,1.8315018315018314
7,32,w04,58,0,1,608,1,1.644736842105263
7,32,b14,59,1,1,577,1,1.733102253032929
7,32,b08,60,1,0,780,1,1.2820512820512822
7,32,w93,61,0,0,623,1,1.6051364365971108
7,32,b98,62,1,0,738,1,1.3550135501355014
7,32,w98,63,0,1,499,1,2.004008016032064
7,32,b91,64,1,1,485,1,2.0618556701030926
7,32,b04,65,1,0,595,1,1.680672268907563
7,32,w94,66,0,1,448,1,2.232142857142857
7,32,b95,67,1,1,637,1,1.5698587127158556
7,32,b08,68,1,1,397,1,2.5188916876574305
7,32,w92,69,0,1,726,0,1.3774104683195592
7,32,b14,70,1,0,522,0,1.9157088122605364
7,32,b91,71,1,0,606,1,1.6501650165016502
7,32,b09,73,1,0,634,1,1.5772870662460567
7,32,w06,74,0,0,638,1,1.567398119122257
7,32,b03,75,1,0,544,1,1.838235294117647
7,32,b02,76,1,1,642,1,1.557632398753894
7,32,w05,77,0,1,521,1,1.9193857965451055
7,32,b01,78,1,1,467,1,2.1413276231263385
7,32,b11,79,1,1,732,1,1.366120218579235
7,32,w15,80,0,1,474,1,2.109704641350211
7,32,w07,81,0,0,626,1,1.597444089456869
7,32,w01,82,0,0,679,1,1.4727540500736378
7,32,w13,83,0,1,540,1,1.8518518518518519
7,32,w99,84,0,1,497,1,2.0120724346076457
7,32,w14,85,0,1,419,1,2.386634844868735
7,32,w11,86,0,0,653,1,1.5313935681470139
7,32,b13,87,1,0,799,1,1.2515644555694618
7,32,w91,88,0,0,561,1,1.7825311942959001
7,32,w92,89,0,0,640,1,1.5625
7,32,b11,90,1,0,693,1,1.443001443001443
